"session_id","window_id","timestamp","accel_x","accel_y","accel_z","gyro_x","gyro_y","gyro_z","linear_accel_x","linear_accel_y","linear_accel_z","latitude","longitude","speed","vibration_intensity","anomaly_score"
"362021cb-71a4-415c-8d22-c46085187d8c","1","1768024991868","-0.36195","9.76395","-1.1179501","0.0017875","-0.0044","0.0011","-0.01478809118270874","0.022171616554260254","0.024370613098144034","15.3277707","74.1245505","0.19859317","0.03611364014104207","0.0"
"362021cb-71a4-415c-8d22-c46085187d8c","1","1768024991879","-0.36195","9.76395","-1.1179501","0.0017875","-0.0044","0.0011","-0.01478809118270874","0.022171616554260254","0.024370613098144034","15.3277707","74.1245505","0.19859317","0.03611364014104207","0.0"
"362021cb-71a4-415c-8d22-c46085187d8c","1","1768024991890","-0.34305","9.74505","-1.1179501","0.0","0.0","0.0","0.002936124801635742","0.018150806427001953","0.004946174621581534","15.3277707","74.1245505","0.19859317","0.019040410872364417","0.0"
"362021cb-71a4-415c-8d22-c46085187d8c","1","1768024991901","-0.34305","9.74505","-1.1179501","0.0","0.0","0.0","0.002936124801635742","0.018150806427001953","0.004946174621581534","15.3277707","74.1245505","0.19859317","0.019040410872364417","0.0"
"362021cb-71a4-415c-8d22-c46085187d8c","1","1768024991912","-0.36195","9.74505","-1.1179501","0.003575","0.0059125","6.875E-4","-0.014981955289840698","0.02220606803894043","0.005606117248534659","15.3277707","74.1245505","0.19859317","0.027367809423867944","0.0"
"362021cb-71a4-415c-8d22-c46085187d8c","1","1768024991923","-0.36195","9.74505","-1.1179501","0.003575","0.0059125","6.875E-4","-0.014981955289840698","0.02220606803894043","0.005606117248534659","15.3277707","74.1245505","0.19859317","0.027367809423867944","0.0"
"362021cb-71a4-415c-8d22-c46085187d8c","1","1768024991934","-0.34305","9.74505","-1.1179501","0.0015125","0.0116875","-0.0017875","0.0027233660221099854","0.01546013355255127","0.004951896667479971","15.3277707","74.1245505","0.19859317","0.016460672299711942","0.0"
"362021cb-71a4-415c-8d22-c46085187d8c","1","1768024991945","-0.34305","9.74505","-1.1179501","0.0015125","0.0116875","-0.0017875","0.0027233660221099854","0.01546013355255127","0.004951896667479971","15.3277707","74.1245505","0.19859317","0.016460672299711942","0.0"
"362021cb-71a4-415c-8d22-c46085187d8c","1","1768024991956","-0.34305","9.74505","-1.1370001","9.625E-4","0.0094875","-0.0023375","0.007842689752578735","0.032120585441589355","0.007095756530761221","15.3277707","74.1245505","0.19859317","0.033817000937538595","0.0"
"362021cb-71a4-415c-8d22-c46085187d8c","1","1768024991967","-0.34305","9.74505","-1.1370001","9.625E-4","0.0094875","-0.0023375","0.007842689752578735","0.032120585441589355","0.007095756530761221","15.3277707","74.1245505","0.19859317","0.033817000937538595","0.0"
"362021cb-71a4-415c-8d22-c46085187d8c","1","1768024991978","-0.36195","9.74505","-1.09905","5.5E-4","0.0067375","-0.0012375","-0.020157605409622192","1.1110305786132812E-4","0.0034880065917963776","15.3277707","74.1245505","0.19859317","0.020457458046490306","0.0"
"362021cb-71a4-415c-8d22-c46085187d8c","1","1768024991989","-0.36195","9.74505","-1.09905","5.5E-4","0.0067375","-0.0012375","-0.020157605409622192","1.1110305786132812E-4","0.0034880065917963776","15.3277707","74.1245505","0.19859317","0.020457458046490306","0.0"
"362021cb-71a4-415c-8d22-c46085187d8c","1","1768024992000","-0.34305","9.74505","-1.09905","-9.625E-4","0.011825","-0.001925","-0.0018319189548492432","-0.005925297737121582","0.00282615661621044","15.3277707","74.1245505","0.19859317","0.00681558812942978","0.0"
"362021cb-71a4-415c-8d22-c46085187d8c","1","1768024992012","-0.34305","9.74505","-1.1560501","-9.625E-4","0.011825","-0.001925","0.013449043035507202","0.04861176013946533","0.009246292114257315","15.3277707","74.1245505","0.19859317","0.051278396038585417","0.0"
"362021cb-71a4-415c-8d22-c46085187d8c","1","1768024992023","-0.34305","9.74505","-1.1560501","-9.625E-4","0.011825","-0.001925","0.013449043035507202","0.04861176013946533","0.009246292114257315","15.3277707","74.1245505","0.19859317","0.051278396038585417","0.0"
"362021cb-71a4-415c-8d22-c46085187d8c","1","1768024992034","-0.36195","9.76395","-1.1370001","-0.001375","0.025575","-0.0034375","-0.00924411416053772","0.03229081630706787","0.026532592773437003","15.3277707","74.1245505","0.19859317","0.04280337537707623","0.0"
"362021cb-71a4-415c-8d22-c46085187d8c","1","1768024992045","-0.36195","9.76395","-1.1370001","-0.001375","0.025575","-0.0034375","-0.00924411416053772","0.03229081630706787","0.026532592773437003","15.3277707","74.1245505","0.19859317","0.04280337537707623","0.0"
"362021cb-71a4-415c-8d22-c46085187d8c","1","1768024992056","-0.36195","9.76395","-1.1370001","-8.25E-4","0.0405625","-0.0048125","-0.00869762897491455","0.031359314918518066","0.026537361145019034","15.3277707","74.1245505","0.19859317","0.041991510076266954","0.0"
"362021cb-71a4-415c-8d22-c46085187d8c","1","1768024992067","-0.36195","9.76395","-1.1370001","-8.25E-4","0.0405625","-0.0048125","-0.00869762897491455","0.031359314918518066","0.026537361145019034","15.3277707","74.1245505","0.19859317","0.041991510076266954","0.0"
"362021cb-71a4-415c-8d22-c46085187d8c","1","1768024992078","-0.34305","9.74505","-1.1560501","4.125E-4","0.0336875","-0.00385","0.014643311500549316","0.045714735984802246","0.009259643554687003","15.3277707","74.1245505","0.19859317","0.0488876738720728","0.0"
"362021cb-71a4-415c-8d22-c46085187d8c","1","1768024992089","-0.34305","9.74505","-1.1560501","4.125E-4","0.0336875","-0.00385","0.014643311500549316","0.045714735984802246","0.009259643554687003","15.3277707","74.1245505","0.19859317","0.0488876738720728","0.0"
"362021cb-71a4-415c-8d22-c46085187d8c","1","1768024992101","-0.34305","9.74505","-1.1179501","0.003575","0.02145","-0.0022","0.00424504280090332","0.008541584014892578","0.004959526062011221","15.3277707","74.1245505","0.19859317","0.010750625313196347","0.0"
"362021cb-71a4-415c-8d22-c46085187d8c","1","1768024992112","-0.34305","9.74505","-1.1179501","0.003575","0.02145","-0.0022","0.00424504280090332","0.008541584014892578","0.004959526062011221","15.3277707","74.1245505","0.19859317","0.010750625313196347","0.0"
"362021cb-71a4-415c-8d22-c46085187d8c","1","1768024992123","-0.34305","9.74505","-1.1179501","0.0037125","0.0114124995","-6.875E-4","0.0041837990283966064","0.006943464279174805","0.004961433410644034","15.3277707","74.1245505","0.19859317","0.009504298606127849","0.0"
"362021cb-71a4-415c-8d22-c46085187d8c","1","1768024992134","-0.34305","9.74505","-1.1179501","0.0037125","0.0114124995","-6.875E-4","0.0041837990283966064","0.006943464279174805","0.004961433410644034","15.3277707","74.1245505","0.19859317","0.009504298606127849","0.0"
"362021cb-71a4-415c-8d22-c46085187d8c","1","1768024992145","-0.34305","9.74505","-1.1370001","0.00275","0.006325","2.75E-4","0.009126424789428711","0.023656010627746582","0.007118644714354971","15.3277707","74.1245505","0.19859317","0.02633578498595347","0.0"
"362021cb-71a4-415c-8d22-c46085187d8c","1","1768024992157","-0.34305","9.74505","-1.1370001","0.00275","0.006325","2.75E-4","0.009126424789428711","0.023656010627746582","0.007118644714354971","15.3277707","74.1245505","0.19859317","0.02633578498595347","0.0"
"362021cb-71a4-415c-8d22-c46085187d8c","1","1768024992168","-0.34305","9.74505","-1.1370001","0.00275","0.006325","2.75E-4","0.009126424789428711","0.023656010627746582","0.007118644714354971","15.3277707","74.1245505","0.19859317","0.02633578498595347","0.0"
"362021cb-71a4-415c-8d22-c46085187d8c","1","1768024992179","-0.36195","9.76395","-1.09905","0.0026125","0.023375","-4.125E-4","-0.01890808343887329","-0.010443806648254395","0.022252502441405753","15.3277707","74.1245505","0.19859317","0.03101229726321941","0.0"
"362021cb-71a4-415c-8d22-c46085187d8c","1","1768024992190","-0.36195","9.76395","-1.09905","0.0026125","0.023375","-4.125E-4","-0.01890808343887329","-0.010443806648254395","0.022252502441405753","15.3277707","74.1245505","0.19859317","0.03101229726321941","0.0"
"362021cb-71a4-415c-8d22-c46085187d8c","1","1768024992201","-0.36195","9.74505","-1.09905","0.001375","0.0323125","-0.0022","-0.019232511520385742","-0.008888006210327148","0.003485145568847159","15.3277707","74.1245505","0.19859317","0.02147166489615184","0.0"
"362021cb-71a4-415c-8d22-c46085187d8c","1","1768024992211","-0.36195","9.74505","-1.09905","0.001375","0.0323125","-0.0022","-0.019232511520385742","-0.008888006210327148","0.003485145568847159","15.3277707","74.1245505","0.19859317","0.02147166489615184","0.0"
"362021cb-71a4-415c-8d22-c46085187d8c","1","1768024992223","-0.36195","9.74505","-1.1370001","-8.25E-4","0.020624999","-0.001925","-0.009565114974975586","0.026166081428527832","0.007790985107421378","15.3277707","74.1245505","0.19859317","0.02892844086280685","0.0"
"362021cb-71a4-415c-8d22-c46085187d8c","1","1768024992233","-0.36195","9.74505","-1.1370001","-8.25E-4","0.020624999","-0.001925","-0.009565114974975586","0.026166081428527832","0.007790985107421378","15.3277707","74.1245505","0.19859317","0.02892844086280685","0.0"
"362021cb-71a4-415c-8d22-c46085187d8c","1","1768024992245","-0.36195","9.74505","-1.09905","-0.0015125","0.014575","-0.00165","-0.01911020278930664","-0.01045680046081543","0.0034841918945307526","15.3277707","74.1245505","0.19859317","0.02206091837806502","0.0"
"362021cb-71a4-415c-8d22-c46085187d8c","1","1768024992255","-0.36195","9.74505","-1.09905","-0.0015125","0.014575","-0.00165","-0.01911020278930664","-0.01045680046081543","0.0034841918945307526","15.3277707","74.1245505","0.19859317","0.02206091837806502","0.0"
"362021cb-71a4-415c-8d22-c46085187d8c","1","1768024992266","-0.381","9.74505","-1.09905","-0.00385","0.0088","-0.001925","-0.03695249557495117","-0.00532984733581543","0.004157485961913565","15.3277707","74.1245505","0.19859317","0.037565661066503185","0.0"
"362021cb-71a4-415c-8d22-c46085187d8c","1","1768024992277","-0.381","9.74505","-1.09905","-0.00385","0.0088","-0.001925","-0.03695249557495117","-0.00532984733581543","0.004157485961913565","15.3277707","74.1245505","0.19859317","0.037565661066503185","0.0"
"362021cb-71a4-415c-8d22-c46085187d8c","1","1768024992288","-0.36195","9.76395","-1.1370001","-0.0075625","0.0026125","-0.00275","-0.00768125057220459","0.024138331413269043","0.02655834197997997","15.3277707","74.1245505","0.19859317","0.03670158283365134","0.0"
"362021cb-71a4-415c-8d22-c46085187d8c","1","1768024992299","-0.36195","9.76395","-1.1370001","-0.0075625","0.0026125","-0.00275","-0.00768125057220459","0.024138331413269043","0.02655834197997997","15.3277707","74.1245505","0.19859317","0.03670158283365134","0.0"
"362021cb-71a4-415c-8d22-c46085187d8c","1","1768024992310","-0.36195","9.76395","-1.1370001","-0.0075625","0.0026125","-0.00275","-0.00768125057220459","0.024138331413269043","0.02655834197997997","15.3277707","74.1245505","0.19859317","0.03670158283365134","0.0"
"362021cb-71a4-415c-8d22-c46085187d8c","1","1768024992321","-0.36195","9.74505","-1.1179501","-0.006325","0.0011","-0.002475","-0.011300861835479736","0.008805990219116211","0.005632820129394034","15.3277707","74.1245505","0.19859317","0.01539427181044558","0.0"
"362021cb-71a4-415c-8d22-c46085187d8c","1","1768024992332","-0.36195","9.74505","-1.1179501","-0.006325","0.0011","-0.002475","-0.011300861835479736","0.008805990219116211","0.005632820129394034","15.3277707","74.1245505","0.19859317","0.01539427181044558","0.0"
"362021cb-71a4-415c-8d22-c46085187d8c","1","1768024992343","-0.34305","9.76395","-1.1179501","-0.0086624995","0.0138875","-0.0048125","0.007811158895492554","0.0024966001510620117","0.023724021911620596","15.3277707","74.1245505","0.19859317","0.025101323297148488","0.0"
"362021cb-71a4-415c-8d22-c46085187d8c","1","1768024992355","-0.34305","9.76395","-1.1179501","-0.0086624995","0.0138875","-0.0048125","0.007811158895492554","0.0024966001510620117","0.023724021911620596","15.3277707","74.1245505","0.19859317","0.025101323297148488","0.0"
"362021cb-71a4-415c-8d22-c46085187d8c","1","1768024992366","-0.36195","9.76395","-1.1179501","-0.00825","0.0257125","-0.00605","-0.009474903345108032","0.0084306001663208","0.024398269653319815","15.3277707","74.1245505","0.19859317","0.027497715807674177","0.0"
"362021cb-71a4-415c-8d22-c46085187d8c","1","1768024992377","-0.36195","9.76395","-1.1179501","-0.00825","0.0257125","-0.00605","-0.009474903345108032","0.0084306001663208","0.024398269653319815","15.3277707","74.1245505","0.19859317","0.027497715807674177","0.0"
"362021cb-71a4-415c-8d22-c46085187d8c","1","1768024992388","-0.34305","9.74505","-1.1179501","-0.00715","0.029975","-0.0067375","0.009712576866149902","0.007213234901428223","0.004957618713378409","15.3277707","74.1245505","0.19859317","0.013074513009335846","0.0"
"362021cb-71a4-415c-8d22-c46085187d8c","1","1768024992399","-0.34305","9.74505","-1.1179501","-0.00715","0.029975","-0.0067375","0.009712576866149902","0.007213234901428223","0.004957618713378409","15.3277707","74.1245505","0.19859317","0.013074513009335846","0.0"
"362021cb-71a4-415c-8d22-c46085187d8c","1","1768024992410","-0.34305","9.724951","-1.09905","-0.0061875","0.0209","-0.005225","0.005992025136947632","-0.007543087005615234","-0.01713520050048878","15.3277707","74.1245505","0.19859317","0.01965750805692432","0.0"
"362021cb-71a4-415c-8d22-c46085187d8c","1","1768024992421","-0.34305","9.724951","-1.09905","-0.0061875","0.0209","-0.005225","0.005992025136947632","-0.007543087005615234","-0.01713520050048878","15.3277707","74.1245505","0.19859317","0.01965750805692432","0.0"
"362021cb-71a4-415c-8d22-c46085187d8c","1","1768024992432","-0.36195","9.76395","-1.1179501","-0.0048125","0.007975","-0.0028875","-0.005877852439880371","0.011852622032165527","0.02439731597900341","15.3277707","74.1245505","0.19859317","0.027753609230543663","0.0"
"362021cb-71a4-415c-8d22-c46085187d8c","1","1768024992443","-0.36195","9.76395","-1.1179501","-0.0048125","0.007975","-0.0028875","-0.005877852439880371","0.011852622032165527","0.02439731597900341","15.3277707","74.1245505","0.19859317","0.027753609230543663","0.0"
"362021cb-71a4-415c-8d22-c46085187d8c","1","1768024992454","-0.36195","9.76395","-1.1179501","-0.0048125","0.007975","-0.0028875","-0.005877852439880371","0.011852622032165527","0.02439731597900341","15.3277707","74.1245505","0.19859317","0.027753609230543663","0.0"
"362021cb-71a4-415c-8d22-c46085187d8c","1","1768024992465","-0.34305","9.76395","-1.1370001","-0.001925","-0.0352","0.0026125","0.017633408308029175","0.025630593299865723","0.025865020751952628","15.3277707","74.1245505","0.19859317","0.04045817222712531","0.0"
"362021cb-71a4-415c-8d22-c46085187d8c","1","1768024992476","-0.34305","9.76395","-1.1370001","-0.001925","-0.0352","0.0026125","0.017633408308029175","0.025630593299865723","0.025865020751952628","15.3277707","74.1245505","0.19859317","0.04045817222712531","0.0"
"362021cb-71a4-415c-8d22-c46085187d8c","1","1768024992487","-0.34305","9.74505","-1.1370001","1.375E-4","-0.054175","0.0056375","0.018050849437713623","0.02705538272857666","0.00709861755371044","15.3277707","74.1245505","0.19859317","0.03328989743430605","0.0"
"362021cb-71a4-415c-8d22-c46085187d8c","1","1768024992498","-0.34305","9.74505","-1.1370001","1.375E-4","-0.054175","0.0056375","0.018050849437713623","0.02705538272857666","0.00709861755371044","15.3277707","74.1245505","0.19859317","0.03328989743430605","0.0"
"362021cb-71a4-415c-8d22-c46085187d8c","1","1768024992509","-0.381","9.74505","-1.1179501","0.0045375","-0.0721875","0.0089375","-0.023048341274261475","0.018053412437438965","0.00632041931152294","15.3277707","74.1245505","0.19859317","0.029951618260197113","0.0"
"362021cb-71a4-415c-8d22-c46085187d8c","1","1768024992521","-0.381","9.74505","-1.1179501","0.0045375","-0.0721875","0.0089375","-0.023048341274261475","0.018053412437438965","0.00632041931152294","15.3277707","74.1245505","0.19859317","0.029951618260197113","0.0"
"362021cb-71a4-415c-8d22-c46085187d8c","1","1768024992532","-0.36195","9.74505","-1.09905","0.008525","-0.089375","0.0114124995","-0.00973251461982727","-0.005217313766479492","0.0035023117065424714","15.3277707","74.1245505","0.19859317","0.011584834528504602","0.0"
"362021cb-71a4-415c-8d22-c46085187d8c","1","1768024992543","-0.36195","9.74505","-1.09905","0.008525","-0.089375","0.0114124995","-0.00973251461982727","-0.005217313766479492","0.0035023117065424714","15.3277707","74.1245505","0.19859317","0.011584834528504602","0.0"
"362021cb-71a4-415c-8d22-c46085187d8c","1","1768024992554","-0.36195","9.74505","-1.08","0.0064625","-0.0924","0.0116875","-0.015135914087295532","-0.025263428688049316","0.0013479614257807526","15.3277707","74.1245505","0.19859317","0.029481413201194028","0.0"
"362021cb-71a4-415c-8d22-c46085187d8c","1","1768024992565","-0.36195","9.74505","-1.08","0.0064625","-0.0924","0.0116875","-0.015135914087295532","-0.025263428688049316","0.0013479614257807526","15.3277707","74.1245505","0.19859317","0.029481413201194028","0.0"
"362021cb-71a4-415c-8d22-c46085187d8c","1","1768024992576","-0.36195","9.74505","-1.08","0.0064625","-0.0924","0.0116875","-0.015135914087295532","-0.025263428688049316","0.0013479614257807526","15.3277707","74.1245505","0.19859317","0.029481413201194028","0.0"
"362021cb-71a4-415c-8d22-c46085187d8c","1","1768024992587","-0.36195","9.74505","-1.1370001","0.003025","-0.0743875","0.00935","-6.730556488037109E-4","0.028065085411071777","0.007789077758788565","15.3277707","74.1245505","0.19859317","0.029133687637674623","0.0"
"362021cb-71a4-415c-8d22-c46085187d8c","1","1768024992598","-0.36195","9.74505","-1.1370001","0.003025","-0.0743875","0.00935","-6.730556488037109E-4","0.028065085411071777","0.007789077758788565","15.3277707","74.1245505","0.19859317","0.029133687637674623","0.0"
"362021cb-71a4-415c-8d22-c46085187d8c","1","1768024992609","-0.34305","9.724951","-1.1179501","-1.375E-4","-0.060775","0.0075625","0.011902809143066406","0.006922006607055664","-0.015001831054687997","15.3277707","74.1245505","0.19859317","0.020362857755182318","0.0"
"362021cb-71a4-415c-8d22-c46085187d8c","1","1768024992620","-0.34305","9.724951","-1.1179501","-1.375E-4","-0.060775","0.0075625","0.011902809143066406","0.006922006607055664","-0.015001831054687997","15.3277707","74.1245505","0.19859317","0.020362857755182318","0.0"
"362021cb-71a4-415c-8d22-c46085187d8c","1","1768024992631","-0.324","9.74505","-1.1179501","-4.125E-4","-0.0534875","0.0066","0.030197083950042725","3.101825714111328E-4","0.004270019531249503","15.3277707","74.1245505","0.19859317","0.030499068167909447","0.0"
"362021cb-71a4-415c-8d22-c46085187d8c","1","1768024992642","-0.324","9.74505","-1.1179501","-4.125E-4","-0.0534875","0.0066","0.030197083950042725","3.101825714111328E-4","0.004270019531249503","15.3277707","74.1245505","0.19859317","0.030499068167909447","0.0"
"362021cb-71a4-415c-8d22-c46085187d8c","1","1768024992653","-0.34305","9.74505","-1.1179501","-2.75E-4","-0.037125","0.0053625","0.011515438556671143","0.0054361820220947266","0.00495475769042919","15.3277707","74.1245505","0.19859317","0.013664077864996287","0.0"
"362021cb-71a4-415c-8d22-c46085187d8c","1","1768024992664","-0.34305","9.74505","-1.1179501","-2.75E-4","-0.037125","0.0053625","0.011515438556671143","0.0054361820220947266","0.00495475769042919","15.3277707","74.1245505","0.19859317","0.013664077864996287","0.0"
"362021cb-71a4-415c-8d22-c46085187d8c","1","1768024992675","-0.34305","9.74505","-1.09905","-1.375E-4","-0.0284625","0.0056375","0.006028592586517334","-0.012544512748718262","0.0028194808959955964","15.3277707","74.1245505","0.19859317","0.01420064087285679","0.0"
"362021cb-71a4-415c-8d22-c46085187d8c","1","1768024992686","-0.34305","9.74505","-1.09905","-1.375E-4","-0.0284625","0.0056375","0.006028592586517334","-0.012544512748718262","0.0028194808959955964","15.3277707","74.1245505","0.19859317","0.01420064087285679","0.0"
"362021cb-71a4-415c-8d22-c46085187d8c","1","1768024992697","-0.36195","9.76395","-1.1560501","-4.125E-4","-0.0056375","0.0039875","0.0028408467769622803","0.044109225273132324","0.02871269226074169","15.3277707","74.1245505","0.19859317","0.052707806456597756","0.0"
"362021cb-71a4-415c-8d22-c46085187d8c","1","1768024992708","-0.36195","9.76395","-1.1560501","-4.125E-4","-0.0056375","0.0039875","0.0028408467769622803","0.044109225273132324","0.02871269226074169","15.3277707","74.1245505","0.19859317","0.052707806456597756","0.0"
"362021cb-71a4-415c-8d22-c46085187d8c","1","1768024992719","-0.34305","9.76395","-1.1179501","-0.0011","0.0094875","0.002475","0.009915441274642944","0.0027260780334472656","0.023724021911620596","15.3277707","74.1245505","0.19859317","0.025856850016550564","0.0"
"362021cb-71a4-415c-8d22-c46085187d8c","1","1768024992731","-0.34305","9.76395","-1.1179501","-0.0011","0.0094875","0.002475","0.009915441274642944","0.0027260780334472656","0.023724021911620596","15.3277707","74.1245505","0.19859317","0.025856850016550564","0.0"
"362021cb-71a4-415c-8d22-c46085187d8c","1","1768024992742","-0.34305","9.76395","-1.1179501","-0.0011","0.0094875","0.002475","0.009915441274642944","0.0027260780334472656","0.023724021911620596","15.3277707","74.1245505","0.19859317","0.025856850016550564","0.0"
"362021cb-71a4-415c-8d22-c46085187d8c","1","1768024992753","-0.34305","9.74505","-1.1179501","-0.0022","0.0336875","-0.0012375","0.009209662675857544","0.005038022994995117","0.004959526062011221","15.3277707","74.1245505","0.19859317","0.011610187813336684","0.0"
"362021cb-71a4-415c-8d22-c46085187d8c","1","1768024992764","-0.34305","9.74505","-1.1179501","-0.0022","0.0336875","-0.0012375","0.009209662675857544","0.005038022994995117","0.004959526062011221","15.3277707","74.1245505","0.19859317","0.011610187813336684","0.0"
"362021cb-71a4-415c-8d22-c46085187d8c","1","1768024992775","-0.36195","9.783","-1.1179501","-0.004125","0.0785125","-0.0061875","-0.009045004844665527","0.005331158638000488","0.043314399719237784","15.3277707","74.1245505","0.19859317","0.04456871759543297","0.0"
"362021cb-71a4-415c-8d22-c46085187d8c","1","1768024992786","-0.36195","9.783","-1.1179501","-0.004125","0.0785125","-0.0061875","-0.009045004844665527","0.005331158638000488","0.043314399719237784","15.3277707","74.1245505","0.19859317","0.04456871759543297","0.0"
"362021cb-71a4-415c-8d22-c46085187d8c","1","1768024992797","-0.36195","9.783","-1.1179501","-0.004125","0.0785125","-0.0061875","-0.009045004844665527","0.005331158638000488","0.043314399719237784","15.3277707","74.1245505","0.19859317","0.04456871759543297","0.0"
"362021cb-71a4-415c-8d22-c46085187d8c","1","1768024992808","-0.381","9.76395","-1.1179501","-0.0034375","0.08415","-0.0064625","-0.027625203132629395","0.012609004974365234","0.025080146789550284","15.3277707","74.1245505","0.19859317","0.039384674907227475","0.0"
"362021cb-71a4-415c-8d22-c46085187d8c","1","1768024992819","-0.34305","9.74505","-1.1370001","-0.0012375","0.0636625","-0.0048125","0.012887418270111084","0.022664666175842285","0.007116737365722159","15.3277707","74.1245505","0.19859317","0.027026294478966744","0.0"
"362021cb-71a4-415c-8d22-c46085187d8c","1","1768024992830","-0.34305","9.74505","-1.1370001","-0.0012375","0.0636625","-0.0048125","0.012887418270111084","0.022664666175842285","0.007116737365722159","15.3277707","74.1245505","0.19859317","0.027026294478966744","0.0"
"362021cb-71a4-415c-8d22-c46085187d8c","1","1768024992841","-0.34305","9.74505","-1.09905","0.0022","0.045375","-0.0028875","0.0026112794876098633","-0.014112472534179688","0.0028166198730463776","15.3277707","74.1245505","0.19859317","0.014625799434548111","0.0"
"362021cb-71a4-415c-8d22-c46085187d8c","1","1768024992851","-0.34305","9.74505","-1.09905","0.0022","0.045375","-0.0028875","0.0026112794876098633","-0.014112472534179688","0.0028166198730463776","15.3277707","74.1245505","0.19859317","0.014625799434548111","0.0"
"362021cb-71a4-415c-8d22-c46085187d8c","1","1768024992862","-0.34305","9.74505","-1.09905","0.0022","0.045375","-0.0028875","0.0026112794876098633","-0.014112472534179688","0.0028166198730463776","15.3277707","74.1245505","0.19859317","0.014625799434548111","0.0"
"362021cb-71a4-415c-8d22-c46085187d8c","2","1768024992873","-0.34305","9.74505","-1.09905","0.0022","0.045375","-0.0028875","0.0026112794876098633","-0.014112472534179688","0.0028166198730463776","15.3277676","74.1245457","0.109130286","0.014625799434548111","0.0"
"362021cb-71a4-415c-8d22-c46085187d8c","2","1768024992884","-0.34305","9.76395","-1.09905","0.001925","0.0180125","-1.375E-4","0.001999199390411377","-0.016952157020568848","0.02158397674560497","15.3277676","74.1245457","0.109130286","0.02751800279830386","0.0"
"362021cb-71a4-415c-8d22-c46085187d8c","2","1768024992896","-0.36195","9.76395","-1.1179501","0.00275","-0.0523875","0.0072875","-0.01176503300666809","0.005129575729370117","0.024398269653319815","15.3277676","74.1245457","0.109130286","0.02756817206285972","0.0"
"362021cb-71a4-415c-8d22-c46085187d8c","2","1768024992907","-0.36195","9.76395","-1.1179501","0.00275","-0.0523875","0.0072875","-0.01176503300666809","0.005129575729370117","0.024398269653319815","15.3277676","74.1245457","0.109130286","0.02756817206285972","0.0"
"362021cb-71a4-415c-8d22-c46085187d8c","2","1768024992918","-0.34305","9.76395","-1.1370001","0.002475","-0.0818125","0.0092124995","0.01171383261680603","0.01785898208618164","0.025888862609862784","15.3277676","74.1245457","0.109130286","0.033561738974037934","0.0"
"362021cb-71a4-415c-8d22-c46085187d8c","2","1768024992929","-0.34305","9.76395","-1.1370001","0.002475","-0.0818125","0.0092124995","0.01171383261680603","0.01785898208618164","0.025888862609862784","15.3277676","74.1245457","0.109130286","0.033561738974037934","0.0"
"362021cb-71a4-415c-8d22-c46085187d8c","2","1768024992940","-0.36195","9.74505","-1.1179501","0.003575","-0.0996875","0.0097624995","-0.011433064937591553","0.006214141845703125","0.005635681152343253","15.3277676","74.1245457","0.109130286","0.014180671168762815","0.0"
"362021cb-71a4-415c-8d22-c46085187d8c","2","1768024992953","-0.36195","9.74505","-1.1179501","0.003575","-0.0996875","0.0097624995","-0.011433064937591553","0.006214141845703125","0.005635681152343253","15.3277676","74.1245457","0.109130286","0.014180671168762815","0.0"
"362021cb-71a4-415c-8d22-c46085187d8c","2","1768024992964","-0.36195","9.76395","-1.1179501","0.0045375","-0.1183875","0.011","-0.011056989431381226","0.003815770149230957","0.02439922332763622","15.3277676","74.1245457","0.109130286","0.02705807118235344","0.0"
"362021cb-71a4-415c-8d22-c46085187d8c","2","1768024992975","-0.36195","9.76395","-1.1179501","0.0045375","-0.1183875","0.011","-0.011056989431381226","0.003815770149230957","0.02439922332763622","15.3277676","74.1245457","0.109130286","0.02705807118235344","0.0"
"362021cb-71a4-415c-8d22-c46085187d8c","2","1768024992986","-0.36195","9.74505","-1.1179501","0.004675","-0.1249875","0.0114124995","-0.01086917519569397","0.006099343299865723","0.00563377380371044","15.3277676","74.1245457","0.109130286","0.013677732465422766","0.0"
"362021cb-71a4-415c-8d22-c46085187d8c","2","1768024992997","-0.36195","9.74505","-1.1179501","0.004675","-0.1249875","0.0114124995","-0.01086917519569397","0.006099343299865723","0.00563377380371044","15.3277676","74.1245457","0.109130286","0.013677732465422766","0.0"
"362021cb-71a4-415c-8d22-c46085187d8c","2","1768024993008","-0.36195","9.74505","-1.1179501","0.005225","-0.142175","0.0125124995","-0.010127604007720947","0.0063359737396240234","0.005634727478026846","15.3277676","74.1245457","0.109130286","0.013208447293987336","0.0"
"362021cb-71a4-415c-8d22-c46085187d8c","2","1768024993020","-0.36195","9.74505","-1.1179501","0.005225","-0.142175","0.0125124995","-0.010127604007720947","0.0063359737396240234","0.005634727478026846","15.3277676","74.1245457","0.109130286","0.013208447293987336","0.0"
"362021cb-71a4-415c-8d22-c46085187d8c","2","1768024993032","-0.36195","9.74505","-1.1179501","0.005225","-0.142175","0.0125124995","-0.010127604007720947","0.0063359737396240234","0.005634727478026846","15.3277676","74.1245457","0.109130286","0.013208447293987336","0.0"
"362021cb-71a4-415c-8d22-c46085187d8c","2","1768024993044","-0.36195","9.76395","-1.1560501","0.00495","-0.13695","0.0122375","0.0014048218727111816","0.03909099102020264","0.028733673095702628","15.3277676","74.1245457","0.109130286","0.048535585635761276","0.0"
"362021cb-71a4-415c-8d22-c46085187d8c","2","1768024993056","-0.34305","9.74505","-1.09905","0.0042625","-0.09955","0.0097624995","0.003921180963516235","-0.018544793128967285","0.00281089782714794","15.3277676","74.1245457","0.109130286","0.019162102153456425","0.0"
"362021cb-71a4-415c-8d22-c46085187d8c","2","1768024993067","-0.34305","9.74505","-1.09905","0.0042625","-0.09955","0.0097624995","0.003921180963516235","-0.018544793128967285","0.00281089782714794","15.3277676","74.1245457","0.109130286","0.019162102153456425","0.0"
"362021cb-71a4-415c-8d22-c46085187d8c","2","1768024993079","-0.34305","9.74505","-1.09905","0.0042625","-0.09955","0.0097624995","0.003921180963516235","-0.018544793128967285","0.00281089782714794","15.3277676","74.1245457","0.109130286","0.019162102153456425","0.0"
"362021cb-71a4-415c-8d22-c46085187d8c","2","1768024993091","-0.36195","9.74505","-1.1179501","0.003025","-0.070125","0.00715","-0.008309692144393921","0.003893256187438965","0.005638542175292471","15.3277676","74.1245457","0.109130286","0.01077040320221048","0.0"
"362021cb-71a4-415c-8d22-c46085187d8c","2","1768024993103","-0.36195","9.74505","-1.1179501","0.003025","-0.070125","0.00715","-0.008309692144393921","0.003893256187438965","0.005638542175292471","15.3277676","74.1245457","0.109130286","0.01077040320221048","0.0"
"362021cb-71a4-415c-8d22-c46085187d8c","2","1768024993116","-0.36195","9.76395","-1.1179501","0.00275","-0.047575","0.0053625","-0.008174121379852295","8.76307487487793E-4","0.024403038024901846","15.3277676","74.1245457","0.109130286","0.025750581352466412","0.0"
"362021cb-71a4-415c-8d22-c46085187d8c","2","1768024993129","-0.34305","9.76395","-1.09905","0.003025","0.0213125","-0.0031625","0.004781186580657959","-0.022406816482543945","0.02157157897949169","15.3277676","74.1245457","0.109130286","0.031468368080819105","0.0"
"362021cb-71a4-415c-8d22-c46085187d8c","2","1768024993141","-0.34305","9.76395","-1.09905","0.003025","0.0213125","-0.0031625","0.004781186580657959","-0.022406816482543945","0.02157157897949169","15.3277676","74.1245457","0.109130286","0.031468368080819105","0.0"
"362021cb-71a4-415c-8d22-c46085187d8c","2","1768024993153","-0.36195","9.76395","-1.09905","2.75E-4","0.0666875","-0.00825","-0.01324605941772461","-0.017727136611938477","0.02225059509277294","15.3277676","74.1245457","0.109130286","0.031381498443171126","0.0"
"362021cb-71a4-415c-8d22-c46085187d8c","2","1768024993164","-0.36195","9.76395","-1.09905","2.75E-4","0.0666875","-0.00825","-0.01324605941772461","-0.017727136611938477","0.02225059509277294","15.3277676","74.1245457","0.109130286","0.031381498443171126","0.0"
"362021cb-71a4-415c-8d22-c46085187d8c","2","1768024993176","-0.381","9.74505","-1.1179501","-0.001925","0.0903375","-0.011","-0.025619298219680786","0.007000923156738281","0.00632804870605419","15.3277676","74.1245457","0.109130286","0.02730211652494523","0.0"
"362021cb-71a4-415c-8d22-c46085187d8c","2","1768024993187","-0.381","9.74505","-1.1179501","-0.001925","0.0903375","-0.011","-0.025619298219680786","0.007000923156738281","0.00632804870605419","15.3277676","74.1245457","0.109130286","0.02730211652494523","0.0"
"362021cb-71a4-415c-8d22-c46085187d8c","2","1768024993198","-0.381","9.74505","-1.1179501","-0.001925","0.0903375","-0.011","-0.025619298219680786","0.007000923156738281","0.00632804870605419","15.3277676","74.1245457","0.109130286","0.02730211652494523","0.0"
"362021cb-71a4-415c-8d22-c46085187d8c","2","1768024993210","-0.34305","9.76395","-1.1370001","-0.0044","0.0972125","-0.01265","0.016194432973861694","0.011976242065429688","0.02589267730712841","15.3277676","74.1245457","0.109130286","0.032804279773922015","0.0"
"362021cb-71a4-415c-8d22-c46085187d8c","2","1768024993221","-0.34305","9.76395","-1.1370001","-0.0044","0.0972125","-0.01265","0.016194432973861694","0.011976242065429688","0.02589267730712841","15.3277676","74.1245457","0.109130286","0.032804279773922015","0.0"
"362021cb-71a4-415c-8d22-c46085187d8c","2","1768024993232","-0.34305","9.74505","-1.1179501","-0.004675","0.10175","-0.013062499","0.01093590259552002","-0.003962278366088867","0.004956665039062003","15.3277676","74.1245457","0.109130286","0.012643660219198272","0.0"
"362021cb-71a4-415c-8d22-c46085187d8c","2","1768024993243","-0.34305","9.74505","-1.1179501","-0.004675","0.10175","-0.013062499","0.01093590259552002","-0.003962278366088867","0.004956665039062003","15.3277676","74.1245457","0.109130286","0.012643660219198272","0.0"
"362021cb-71a4-415c-8d22-c46085187d8c","2","1768024993255","-0.36195","9.783","-1.09905","-0.0042625","0.1010625","-0.012375","-0.012157946825027466","-0.02124345302581787","0.04116386413574169","15.3277676","74.1245457","0.109130286","0.04789116492680176","0.0"
"362021cb-71a4-415c-8d22-c46085187d8c","2","1768024993265","-0.36195","9.783","-1.09905","-0.0042625","0.1010625","-0.012375","-0.012157946825027466","-0.02124345302581787","0.04116386413574169","15.3277676","74.1245457","0.109130286","0.04789116492680176","0.0"
"362021cb-71a4-415c-8d22-c46085187d8c","2","1768024993276","-0.34305","9.76395","-1.09905","-0.0045375","0.1010625","-0.01155","0.006098002195358276","-0.023569941520690918","0.021567764282226065","15.3277676","74.1245457","0.109130286","0.032525316757828056","0.0"
"362021cb-71a4-415c-8d22-c46085187d8c","2","1768024993287","-0.34305","9.76395","-1.09905","-0.0045375","0.1010625","-0.01155","0.006098002195358276","-0.023569941520690918","0.021567764282226065","15.3277676","74.1245457","0.109130286","0.032525316757828056","0.0"
"362021cb-71a4-415c-8d22-c46085187d8c","2","1768024993298","-0.381","9.74505","-1.1179501","-0.005225","0.0862125","-0.008525","-0.024872779846191406","0.006614208221435547","0.006329002380370596","15.3277676","74.1245457","0.109130286","0.026503946853333894","0.0"
"362021cb-71a4-415c-8d22-c46085187d8c","2","1768024993309","-0.381","9.74505","-1.1179501","-0.005225","0.0862125","-0.008525","-0.024872779846191406","0.006614208221435547","0.006329002380370596","15.3277676","74.1245457","0.109130286","0.026503946853333894","0.0"
"362021cb-71a4-415c-8d22-c46085187d8c","2","1768024993320","-0.34305","9.76395","-1.1370001","-0.006875","0.0589875","-0.0070125","0.01620057225227356","0.01366877555847168","0.025890769958495596","15.3277676","74.1245457","0.109130286","0.03346081193893458","0.0"
"362021cb-71a4-415c-8d22-c46085187d8c","2","1768024993331","-0.34305","9.76395","-1.1370001","-0.006875","0.0589875","-0.0070125","0.01620057225227356","0.01366877555847168","0.025890769958495596","15.3277676","74.1245457","0.109130286","0.03346081193893458","0.0"
"362021cb-71a4-415c-8d22-c46085187d8c","2","1768024993342","-0.34305","9.76395","-1.1370001","-0.006875","0.0589875","-0.0070125","0.01620057225227356","0.01366877555847168","0.025890769958495596","15.3277676","74.1245457","0.109130286","0.03346081193893458","0.0"
"362021cb-71a4-415c-8d22-c46085187d8c","2","1768024993353","-0.324","9.74505","-1.1370001","-0.005225","0.046475","-0.0059125","0.033814311027526855","0.011805057525634766","0.006439628601073721","15.3277676","74.1245457","0.109130286","0.036390051249890226","0.0"
"362021cb-71a4-415c-8d22-c46085187d8c","2","1768024993365","-0.324","9.74505","-1.1370001","-0.005225","0.046475","-0.0059125","0.033814311027526855","0.011805057525634766","0.006439628601073721","15.3277676","74.1245457","0.109130286","0.036390051249890226","0.0"
"362021cb-71a4-415c-8d22-c46085187d8c","2","1768024993375","-0.36195","9.76395","-1.1370001","-0.0034375","0.0320375","-0.0033","-0.0024331510066986084","0.019923090934753418","0.026570739746093253","15.3277676","74.1245457","0.109130286","0.03329945925792898","0.0"
"362021cb-71a4-415c-8d22-c46085187d8c","2","1768024993386","-0.36195","9.76395","-1.1370001","-0.0034375","0.0320375","-0.0033","-0.0024331510066986084","0.019923090934753418","0.026570739746093253","15.3277676","74.1245457","0.109130286","0.03329945925792898","0.0"
"362021cb-71a4-415c-8d22-c46085187d8c","2","1768024993397","-0.36195","9.76395","-1.09905","-5.5E-4","0.0270875","-0.0026125","-0.012074977159500122","-0.01570868492126465","0.02225536346435497","15.3277676","74.1245457","0.109130286","0.0297971317124411","0.0"
"362021cb-71a4-415c-8d22-c46085187d8c","2","1768024993408","-0.36195","9.76395","-1.09905","-5.5E-4","0.0270875","-0.0026125","-0.012074977159500122","-0.01570868492126465","0.02225536346435497","15.3277676","74.1245457","0.109130286","0.0297971317124411","0.0"
"362021cb-71a4-415c-8d22-c46085187d8c","2","1768024993419","-0.34305","9.76395","-1.1560501","0.0015125","0.023375","-0.0011","0.020413875579833984","0.03363907337188721","0.028055610656737784","15.3277676","74.1245457","0.109130286","0.04832629576980437","0.0"
"362021cb-71a4-415c-8d22-c46085187d8c","2","1768024993430","-0.34305","9.76395","-1.1560501","0.0015125","0.023375","-0.0011","0.020413875579833984","0.03363907337188721","0.028055610656737784","15.3277676","74.1245457","0.109130286","0.04832629576980437","0.0"
"362021cb-71a4-415c-8d22-c46085187d8c","2","1768024993441","-0.36195","9.74505","-1.09905","0.00385","0.0209","0.0017875","-0.012534528970718384","-0.014878630638122559","0.0034880065917963776","15.3277676","74.1245457","0.109130286","0.019764975491203443","0.0"
"362021cb-71a4-415c-8d22-c46085187d8c","2","1768024993452","-0.36195","9.74505","-1.09905","0.00385","0.0209","0.0017875","-0.012534528970718384","-0.014878630638122559","0.0034880065917963776","15.3277676","74.1245457","0.109130286","0.019764975491203443","0.0"
"362021cb-71a4-415c-8d22-c46085187d8c","2","1768024993463","-0.36195","9.783","-1.1179501","0.0022","0.0180125","0.001375","-0.008514344692230225","-0.0017735958099365234","0.04331535339355419","15.3277676","74.1245457","0.109130286","0.04417985454077027","0.0"
"362021cb-71a4-415c-8d22-c46085187d8c","2","1768024993474","-0.36195","9.783","-1.1179501","0.0022","0.0180125","0.001375","-0.008514344692230225","-0.0017735958099365234","0.04331535339355419","15.3277676","74.1245457","0.109130286","0.04417985454077027","0.0"
"362021cb-71a4-415c-8d22-c46085187d8c","2","1768024993485","-0.36195","9.783","-1.1179501","0.0022","0.0180125","0.001375","-0.008514344692230225","-0.0017735958099365234","0.04331535339355419","15.3277676","74.1245457","0.109130286","0.04417985454077027","0.0"
"362021cb-71a4-415c-8d22-c46085187d8c","2","1768024993496","-0.36195","9.74505","-1.1179501","0.0011","0.0108624995","5.5E-4","-0.009889036417007446","0.0020791292190551758","0.005635681152343253","15.3277676","74.1245457","0.109130286","0.011570510862416812","0.0"
"362021cb-71a4-415c-8d22-c46085187d8c","2","1768024993507","-0.36195","9.74505","-1.1179501","0.0011","0.0108624995","5.5E-4","-0.009889036417007446","0.0020791292190551758","0.005635681152343253","15.3277676","74.1245457","0.109130286","0.011570510862416812","0.0"
"362021cb-71a4-415c-8d22-c46085187d8c","2","1768024993518","-0.34305","9.74505","-1.1370001","0.0012375","0.0067375","6.875E-4","0.012850731611251831","0.0151442289352417","0.007132949829101065","15.3277676","74.1245457","0.109130286","0.021103742470280285","0.0"
"362021cb-71a4-415c-8d22-c46085187d8c","2","1768024993529","-0.34305","9.74505","-1.1370001","0.0012375","0.0067375","6.875E-4","0.012850731611251831","0.0151442289352417","0.007132949829101065","15.3277676","74.1245457","0.109130286","0.021103742470280285","0.0"
"362021cb-71a4-415c-8d22-c46085187d8c","2","1768024993540","-0.36195","9.76395","-1.1179501","0.0","0.0","0.0","-0.010422617197036743","-7.523298263549805E-4","0.02440208435058544","15.3277676","74.1245457","0.109130286","0.026545407701835663","0.0"
"362021cb-71a4-415c-8d22-c46085187d8c","2","1768024993551","-0.36195","9.76395","-1.1179501","0.0","0.0","0.0","-0.010422617197036743","-7.523298263549805E-4","0.02440208435058544","15.3277676","74.1245457","0.109130286","0.026545407701835663","0.0"
"362021cb-71a4-415c-8d22-c46085187d8c","2","1768024993562","-0.36195","9.76395","-1.1179501","0.0045375","-0.01375","0.002475","-0.010038405656814575","-9.635686874389648E-4","0.024400177001952628","15.3277676","74.1245457","0.109130286","0.026402020575569545","0.0"
"362021cb-71a4-415c-8d22-c46085187d8c","2","1768024993573","-0.36195","9.76395","-1.1179501","0.0045375","-0.01375","0.002475","-0.010038405656814575","-9.635686874389648E-4","0.024400177001952628","15.3277676","74.1245457","0.109130286","0.026402020575569545","0.0"
"362021cb-71a4-415c-8d22-c46085187d8c","2","1768024993584","-0.36195","9.74505","-1.1179501","0.0039875","-0.0182875","0.0028875","-0.010327577590942383","5.033016204833984E-4","0.005636634826659659","15.3277676","74.1245457","0.109130286","0.011776409622088944","0.0"
"362021cb-71a4-415c-8d22-c46085187d8c","2","1768024993595","-0.36195","9.74505","-1.1179501","0.0039875","-0.0182875","0.0028875","-0.010327577590942383","5.033016204833984E-4","0.005636634826659659","15.3277676","74.1245457","0.109130286","0.011776409622088944","0.0"
"362021cb-71a4-415c-8d22-c46085187d8c","2","1768024993606","-0.36195","9.74505","-1.1179501","0.0039875","-0.0182875","0.0028875","-0.010327577590942383","5.033016204833984E-4","0.005636634826659659","15.3277676","74.1245457","0.109130286","0.011776409622088944","0.0"
"362021cb-71a4-415c-8d22-c46085187d8c","2","1768024993617","-0.34305","9.76395","-1.09905","0.0022","-0.013612499","5.5E-4","0.002727001905441284","-0.02518939971923828","0.021565856933593253","15.3277676","74.1245457","0.109130286","0.03327203905515943","0.0"
"362021cb-71a4-415c-8d22-c46085187d8c","2","1768024993629","-0.34305","9.76395","-1.09905","0.0022","-0.013612499","5.5E-4","0.002727001905441284","-0.02518939971923828","0.021565856933593253","15.3277676","74.1245457","0.109130286","0.03327203905515943","0.0"
"362021cb-71a4-415c-8d22-c46085187d8c","2","1768024993640","-0.36195","9.74505","-1.1370001","6.875E-4","-0.0067375","-9.625E-4","-0.005494177341461182","0.01792120933532715","0.007811965942382315","15.3277676","74.1245457","0.109130286","0.020307204154806333","0.0"
"362021cb-71a4-415c-8d22-c46085187d8c","2","1768024993651","-0.36195","9.74505","-1.1370001","6.875E-4","-0.0067375","-9.625E-4","-0.005494177341461182","0.01792120933532715","0.007811965942382315","15.3277676","74.1245457","0.109130286","0.020307204154806333","0.0"
"362021cb-71a4-415c-8d22-c46085187d8c","2","1768024993661","-0.34305","9.76395","-1.1179501","4.125E-4","-0.00825","-0.0017875","0.008076667785644531","-0.007997870445251465","0.02372306823730419","15.3277676","74.1245457","0.109130286","0.026305559503087668","0.0"
"362021cb-71a4-415c-8d22-c46085187d8c","2","1768024993672","-0.34305","9.76395","-1.1179501","4.125E-4","-0.00825","-0.0017875","0.008076667785644531","-0.007997870445251465","0.02372306823730419","15.3277676","74.1245457","0.109130286","0.026305559503087668","0.0"
"362021cb-71a4-415c-8d22-c46085187d8c","2","1768024993684","-0.34305","9.74505","-1.1179501","-0.0017875","-0.009625","-0.001375","0.008370369672775269","-0.00592350959777832","0.004957618713378409","15.3277676","74.1245457","0.109130286","0.011389865570810204","0.0"
"362021cb-71a4-415c-8d22-c46085187d8c","2","1768024993695","-0.34305","9.74505","-1.1179501","-0.0017875","-0.009625","-0.001375","0.008370369672775269","-0.00592350959777832","0.004957618713378409","15.3277676","74.1245457","0.109130286","0.011389865570810204","0.0"
"362021cb-71a4-415c-8d22-c46085187d8c","2","1768024993706","-0.34305","9.74505","-1.1370001","-6.875E-4","-0.0097624995","-6.875E-4","0.0138816237449646","0.011983752250671387","0.007132949829101065","15.3277676","74.1245457","0.109130286","0.019677112823448195","0.0"
"362021cb-71a4-415c-8d22-c46085187d8c","2","1768024993717","-0.34305","9.74505","-1.1370001","-6.875E-4","-0.0097624995","-6.875E-4","0.0138816237449646","0.011983752250671387","0.007132949829101065","15.3277676","74.1245457","0.109130286","0.019677112823448195","0.0"
"362021cb-71a4-415c-8d22-c46085187d8c","2","1768024993728","-0.34305","9.74505","-1.1179501","4.125E-4","-0.0119624995","9.625E-4","0.008969902992248535","-0.005857348442077637","0.004956665039062003","15.3277676","74.1245457","0.109130286","0.011804076362499442","0.0"
"362021cb-71a4-415c-8d22-c46085187d8c","2","1768024993739","-0.34305","9.74505","-1.1179501","4.125E-4","-0.0119624995","9.625E-4","0.008969902992248535","-0.005857348442077637","0.004956665039062003","15.3277676","74.1245457","0.109130286","0.011804076362499442","0.0"
"362021cb-71a4-415c-8d22-c46085187d8c","2","1768024993752","-0.381","9.74505","-1.1370001","9.625E-4","-0.0066","0.0020625","-0.021929502487182617","0.022071003913879395","0.008501472473144034","15.3277676","74.1245457","0.109130286","0.032253795548949804","0.0"
"362021cb-71a4-415c-8d22-c46085187d8c","2","1768024993764","-0.381","9.74505","-1.1370001","9.625E-4","-0.0066","0.0020625","-0.021929502487182617","0.022071003913879395","0.008501472473144034","15.3277676","74.1245457","0.109130286","0.032253795548949804","0.0"
"362021cb-71a4-415c-8d22-c46085187d8c","2","1768024993775","-0.381","9.74505","-1.1370001","9.625E-4","-0.0066","0.0020625","-0.021929502487182617","0.022071003913879395","0.008501472473144034","15.3277676","74.1245457","0.109130286","0.032253795548949804","0.0"
"362021cb-71a4-415c-8d22-c46085187d8c","2","1768024993785","-0.36195","9.76395","-1.09905","0.0","0.0","0.0","-0.01299014687538147","-0.020980477333068848","0.022244873046874503","15.3277676","74.1245457","0.109130286","0.033222864443617176","0.0"
"362021cb-71a4-415c-8d22-c46085187d8c","2","1768024993797","-0.36195","9.76395","-1.09905","0.0","0.0","0.0","-0.01299014687538147","-0.020980477333068848","0.022244873046874503","15.3277676","74.1245457","0.109130286","0.033222864443617176","0.0"
"362021cb-71a4-415c-8d22-c46085187d8c","2","1768024993808","-0.36195","9.76395","-1.09905","0.0","0.0","0.0","-0.01299014687538147","-0.020980477333068848","0.022244873046874503","15.3277676","74.1245457","0.109130286","0.033222864443617176","0.0"
"362021cb-71a4-415c-8d22-c46085187d8c","2","1768024993819","-0.34305","9.74505","-1.1179501","4.125E-4","0.02915","-0.0028875","0.00952044129371643","-0.005157470703125","0.004958572387694815","15.3277676","74.1245457","0.109130286","0.011909061533332639","0.0"
"362021cb-71a4-415c-8d22-c46085187d8c","2","1768024993830","-0.34305","9.724951","-1.1179501","-4.125E-4","0.0418","-0.0045375","0.009632408618927002","-0.003026127815246582","-0.014997062683105966","15.3277676","74.1245457","0.109130286","0.018079066194834226","0.0"
"362021cb-71a4-415c-8d22-c46085187d8c","2","1768024993841","-0.34305","9.724951","-1.1179501","-4.125E-4","0.0418","-0.0045375","0.009632408618927002","-0.003026127815246582","-0.014997062683105966","15.3277676","74.1245457","0.109130286","0.018079066194834226","0.0"
"362021cb-71a4-415c-8d22-c46085187d8c","2","1768024993852","-0.34305","9.76395","-1.09905","-5.5E-4","0.026675","-0.002475","0.004731655120849609","-0.025811195373535156","0.02156394958496044","15.3277676","74.1245457","0.109130286","0.03396483900294804","0.0"
"362021cb-71a4-415c-8d22-c46085187d8c","2","1768024993863","-0.34305","9.76395","-1.09905","-5.5E-4","0.026675","-0.002475","0.004731655120849609","-0.025811195373535156","0.02156394958496044","15.3277676","74.1245457","0.109130286","0.03396483900294804","0.0"
"362021cb-71a4-415c-8d22-c46085187d8c","2","1768024993875","-0.36195","9.783","-1.09905","-6.875E-4","0.020624999","-0.001375","-0.013082921504974365","-0.023077726364135742","0.041157188415526846","15.3277676","74.1245457","0.109130286","0.0489658906537441","0.0"
"362021cb-71a4-415c-8d22-c46085187d8c","2","1768024993886","-0.36195","9.783","-1.09905","-6.875E-4","0.020624999","-0.001375","-0.013082921504974365","-0.023077726364135742","0.041157188415526846","15.3277676","74.1245457","0.109130286","0.0489658906537441","0.0"
"362021cb-71a4-415c-8d22-c46085187d8c","2","1768024993897","-0.36195","9.76395","-1.09905","0.0","0.0","0.0","-0.013214081525802612","-0.020384669303894043","0.02224582672119091","15.3277676","74.1245457","0.109130286","0.03293969489398663","0.0"
"362021cb-71a4-415c-8d22-c46085187d8c","3","1768024993907","-0.36195","9.76395","-1.09905","0.0","0.0","0.0","-0.013214081525802612","-0.020384669303894043","0.02224582672119091","15.3277668","74.1245442","0.02884402","0.03293969489398663","0.0"
"362021cb-71a4-415c-8d22-c46085187d8c","3","1768024993923","-0.36195","9.76395","-1.09905","0.0","0.0","0.0","-0.013214081525802612","-0.020384669303894043","0.02224582672119091","15.3277668","74.1245442","0.02884402","0.03293969489398663","0.0"
"362021cb-71a4-415c-8d22-c46085187d8c","3","1768024993934","-0.36195","9.74505","-1.1179501","-0.0037125","-0.0320375","0.004125","-0.008797794580459595","-2.663135528564453E-4","0.005639495849608878","15.3277668","74.1245442","0.02884402","0.010453517390149356","0.0"
"362021cb-71a4-415c-8d22-c46085187d8c","3","1768024993945","-0.36195","9.74505","-1.08","-0.0039875","-0.0320375","0.00385","-0.017834901809692383","-0.03522694110870361","0.0013136291503901276","15.3277668","74.1245442","0.02884402","0.03950628714498739","0.0"
"362021cb-71a4-415c-8d22-c46085187d8c","3","1768024993955","-0.36195","9.74505","-1.08","-0.0039875","-0.0320375","0.00385","-0.017834901809692383","-0.03522694110870361","0.0013136291503901276","15.3277668","74.1245442","0.02884402","0.03950628714498739","0.0"
"362021cb-71a4-415c-8d22-c46085187d8c","3","1768024993967","-0.36195","9.74505","-1.1179501","-0.0077","-0.03575","0.0023375","-0.0074329674243927","0.002339482307434082","0.005639495849608878","15.3277668","74.1245442","0.02884402","0.009619048582715232","0.0"
"362021cb-71a4-415c-8d22-c46085187d8c","3","1768024993978","-0.36195","9.74505","-1.1179501","-0.0077","-0.03575","0.0023375","-0.0074329674243927","0.002339482307434082","0.005639495849608878","15.3277668","74.1245442","0.02884402","0.009619048582715232","0.0"
"362021cb-71a4-415c-8d22-c46085187d8c","3","1768024993989","-0.36195","9.74505","-1.1179501","-0.0077","-0.03575","0.0023375","-0.0074329674243927","0.002339482307434082","0.005639495849608878","15.3277668","74.1245442","0.02884402","0.009619048582715232","0.0"
"362021cb-71a4-415c-8d22-c46085187d8c","3","1768024994000","-0.34305","9.783","-1.1370001","-0.0072875","-0.0352","9.625E-4","0.016551673412322998","0.012999176979064941","0.044802131652831534","15.3277668","74.1245442","0.02884402","0.04949916661438757","0.0"
"362021cb-71a4-415c-8d22-c46085187d8c","3","1768024994011","-0.34305","9.783","-1.1370001","-0.0072875","-0.0352","9.625E-4","0.016551673412322998","0.012999176979064941","0.044802131652831534","15.3277668","74.1245442","0.02884402","0.04949916661438757","0.0"
"362021cb-71a4-415c-8d22-c46085187d8c","3","1768024994022","-0.36195","9.783","-1.1370001","-0.006325","-0.02695","0.0012375","1.3896822929382324E-4","0.0194777250289917","0.04548019409179638","15.3277668","74.1245442","0.02884402","0.04947574293632419","0.0"
"362021cb-71a4-415c-8d22-c46085187d8c","3","1768024994033","-0.36195","9.783","-1.1370001","-0.006325","-0.02695","0.0012375","1.3896822929382324E-4","0.0194777250289917","0.04548019409179638","15.3277668","74.1245442","0.02884402","0.04947574293632419","0.0"
"362021cb-71a4-415c-8d22-c46085187d8c","3","1768024994044","-0.36195","9.783","-1.1179501","-0.0042625","-0.01705","0.001375","-0.004109889268875122","0.0024292469024658203","0.04332012176513622","15.3277668","74.1245442","0.02884402","0.04358239759423274","0.0"
"362021cb-71a4-415c-8d22-c46085187d8c","3","1768024994055","-0.36195","9.783","-1.1179501","-0.0042625","-0.01705","0.001375","-0.004109889268875122","0.0024292469024658203","0.04332012176513622","15.3277668","74.1245442","0.02884402","0.04358239759423274","0.0"
"362021cb-71a4-415c-8d22-c46085187d8c","3","1768024994066","-0.36195","9.74505","-1.1179501","-0.0034375","-0.0092124995","6.875E-4","-0.0038925111293792725","0.008039593696594238","0.005638542175292471","15.3277668","74.1245442","0.02884402","0.010563137202612264","0.0"
"362021cb-71a4-415c-8d22-c46085187d8c","3","1768024994077","-0.36195","9.74505","-1.1179501","-0.0034375","-0.0092124995","6.875E-4","-0.0038925111293792725","0.008039593696594238","0.005638542175292471","15.3277668","74.1245442","0.02884402","0.010563137202612264","0.0"
"362021cb-71a4-415c-8d22-c46085187d8c","3","1768024994088","-0.34305","9.76395","-1.1370001","-0.0026125","0.007975","-0.0015125","0.019443094730377197","0.019436359405517578","0.02587455749511669","15.3277668","74.1245442","0.02884402","0.037753128680984474","0.0"
"362021cb-71a4-415c-8d22-c46085187d8c","3","1768024994100","-0.34305","9.76395","-1.1370001","-0.0026125","0.007975","-0.0015125","0.019443094730377197","0.019436359405517578","0.02587455749511669","15.3277668","74.1245442","0.02884402","0.037753128680984474","0.0"
"362021cb-71a4-415c-8d22-c46085187d8c","3","1768024994111","-0.34305","9.76395","-1.09905","-1.375E-4","0.0204875","-0.003575","0.009504437446594238","-0.01659834384918213","0.021580162048339346","15.3277668","74.1245442","0.02884402","0.028836482860163284","0.0"
"362021cb-71a4-415c-8d22-c46085187d8c","3","1768024994122","-0.34305","9.76395","-1.09905","-1.375E-4","0.0204875","-0.003575","0.009504437446594238","-0.01659834384918213","0.021580162048339346","15.3277668","74.1245442","0.02884402","0.028836482860163284","0.0"
"362021cb-71a4-415c-8d22-c46085187d8c","3","1768024994133","-0.34305","9.76395","-1.09905","-1.375E-4","0.0204875","-0.003575","0.009504437446594238","-0.01659834384918213","0.021580162048339346","15.3277668","74.1245442","0.02884402","0.028836482860163284","0.0"
"362021cb-71a4-415c-8d22-c46085187d8c","3","1768024994144","-0.34305","9.76395","-1.09905","1.375E-4","0.0375375","-0.005225","0.009643644094467163","-0.01694166660308838","0.021578254699706534","15.3277668","74.1245442","0.02884402","0.02907990740350386","0.0"
"362021cb-71a4-415c-8d22-c46085187d8c","3","1768024994155","-0.34305","9.76395","-1.09905","1.375E-4","0.0375375","-0.005225","0.009643644094467163","-0.01694166660308838","0.021578254699706534","15.3277668","74.1245442","0.02884402","0.02907990740350386","0.0"
"362021cb-71a4-415c-8d22-c46085187d8c","3","1768024994166","-0.34305","9.76395","-1.09905","-6.875E-4","0.0595375","-0.00715","0.009409010410308838","-0.017465949058532715","0.021577301025390128","15.3277668","74.1245442","0.02884402","0.029311580867583068","0.0"
"362021cb-71a4-415c-8d22-c46085187d8c","3","1768024994177","-0.34305","9.76395","-1.09905","-6.875E-4","0.0595375","-0.00715","0.009409010410308838","-0.017465949058532715","0.021577301025390128","15.3277668","74.1245442","0.02884402","0.029311580867583068","0.0"
"362021cb-71a4-415c-8d22-c46085187d8c","3","1768024994188","-0.36195","9.74505","-1.1179501","-0.0012375","0.055","-0.0056375","-0.0044990479946136475","0.007236123085021973","0.005638542175292471","15.3277668","74.1245442","0.02884402","0.010217439406327642","0.0"
"362021cb-71a4-415c-8d22-c46085187d8c","3","1768024994199","-0.36195","9.74505","-1.1179501","-0.0012375","0.055","-0.0056375","-0.0044990479946136475","0.007236123085021973","0.005638542175292471","15.3277668","74.1245442","0.02884402","0.010217439406327642","0.0"
"362021cb-71a4-415c-8d22-c46085187d8c","3","1768024994210","-0.36195","9.74505","-1.1370001","-4.125E-4","0.037125","-0.002475","1.481175422668457E-4","0.024430394172668457","0.00780052185058544","15.3277668","74.1245442","0.02884402","0.025645940017471402","0.0"
"362021cb-71a4-415c-8d22-c46085187d8c","3","1768024994221","-0.36195","9.74505","-1.1370001","-4.125E-4","0.037125","-0.002475","1.481175422668457E-4","0.024430394172668457","0.00780052185058544","15.3277668","74.1245442","0.02884402","0.025645940017471402","0.0"
"362021cb-71a4-415c-8d22-c46085187d8c","3","1768024994232","-0.36195","9.74505","-1.1179501","0.001375","0.02585","-0.001375","-0.0048108696937561035","0.006075143814086914","0.005639495849608878","15.3277668","74.1245442","0.02884402","0.009584140702738832","0.0"
"362021cb-71a4-415c-8d22-c46085187d8c","3","1768024994243","-0.36195","9.74505","-1.1179501","0.001375","0.02585","-0.001375","-0.0048108696937561035","0.006075143814086914","0.005639495849608878","15.3277668","74.1245442","0.02884402","0.009584140702738832","0.0"
"362021cb-71a4-415c-8d22-c46085187d8c","3","1768024994254","-0.36195","9.74505","-1.1179501","0.001375","0.02585","-0.001375","-0.0048108696937561035","0.006075143814086914","0.005639495849608878","15.3277668","74.1245442","0.02884402","0.009584140702738832","0.0"
"362021cb-71a4-415c-8d22-c46085187d8c","3","1768024994265","-0.324","9.76395","-1.1370001","0.0","0.0","0.0","0.03574123978614807","0.012245655059814453","0.025194587707519034","15.3277668","74.1245442","0.02884402","0.04541100680503309","0.0"
"362021cb-71a4-415c-8d22-c46085187d8c","3","1768024994276","-0.324","9.76395","-1.1370001","0.0","0.0","0.0","0.03574123978614807","0.012245655059814453","0.025194587707519034","15.3277668","74.1245442","0.02884402","0.04541100680503309","0.0"
"362021cb-71a4-415c-8d22-c46085187d8c","3","1768024994287","-0.36195","9.74505","-1.1370001","0.0034375","-0.0155375","0.0031625","-0.0010467171669006348","0.024121761322021484","0.007801475524901846","15.3277668","74.1245442","0.02884402","0.02537356905265199","0.0"
"362021cb-71a4-415c-8d22-c46085187d8c","3","1768024994298","-0.36195","9.74505","-1.1370001","0.0034375","-0.0155375","0.0031625","-0.0010467171669006348","0.024121761322021484","0.007801475524901846","15.3277668","74.1245442","0.02884402","0.02537356905265199","0.0"
"362021cb-71a4-415c-8d22-c46085187d8c","3","1768024994309","-0.36195","9.76395","-1.1179501","0.0039875","-0.017324999","0.0042625","-0.006232619285583496","0.002887248992919922","0.02440494537353466","15.3277668","74.1245442","0.02884402","0.025353167624408496","0.0"
"362021cb-71a4-415c-8d22-c46085187d8c","3","1768024994320","-0.36195","9.76395","-1.1179501","0.0039875","-0.017324999","0.0042625","-0.006232619285583496","0.002887248992919922","0.02440494537353466","15.3277668","74.1245442","0.02884402","0.025353167624408496","0.0"
"362021cb-71a4-415c-8d22-c46085187d8c","3","1768024994331","-0.36195","9.783","-1.1370001","0.0034375","-0.0218625","0.005775","-0.0020930469036102295","0.017777442932128906","0.045484008789062","15.3277668","74.1245442","0.02884402","0.04887958037943126","0.0"
"362021cb-71a4-415c-8d22-c46085187d8c","3","1768024994342","-0.36195","9.783","-1.1370001","0.0034375","-0.0218625","0.005775","-0.0020930469036102295","0.017777442932128906","0.045484008789062","15.3277668","74.1245442","0.02884402","0.04887958037943126","0.0"
"362021cb-71a4-415c-8d22-c46085187d8c","3","1768024994353","-0.34305","9.76395","-1.1179501","0.0033","-0.0259875","0.0053625","0.010206669569015503","-0.0031173229217529297","0.023724021911620596","15.3277668","74.1245442","0.02884402","0.026013900544758904","0.0"
"362021cb-71a4-415c-8d22-c46085187d8c","3","1768024994364","-0.34305","9.76395","-1.1179501","0.0033","-0.0259875","0.0053625","0.010206669569015503","-0.0031173229217529297","0.023724021911620596","15.3277668","74.1245442","0.02884402","0.026013900544758904","0.0"
"362021cb-71a4-415c-8d22-c46085187d8c","3","1768024994376","-0.34305","9.76395","-1.09905","0.0044","-0.04455","0.006875","0.004105210304260254","-0.02071058750152588","0.021575393676757315","15.3277668","74.1245442","0.02884402","0.030187394697251103","0.0"
"362021cb-71a4-415c-8d22-c46085187d8c","3","1768024994386","-0.34305","9.76395","-1.09905","0.0044","-0.04455","0.006875","0.004105210304260254","-0.02071058750152588","0.021575393676757315","15.3277668","74.1245442","0.02884402","0.030187394697251103","0.0"
"362021cb-71a4-415c-8d22-c46085187d8c","3","1768024994397","-0.34305","9.76395","-1.09905","0.0044","-0.04455","0.006875","0.004105210304260254","-0.02071058750152588","0.021575393676757315","15.3277668","74.1245442","0.02884402","0.030187394697251103","0.0"
"362021cb-71a4-415c-8d22-c46085187d8c","3","1768024994408","-0.36195","9.783","-1.1370001","0.005225","-0.0631125","0.008525","-0.004492074251174927","0.017497539520263672","0.045484008789062","15.3277668","74.1245442","0.02884402","0.048940143807152094","0.0"
"362021cb-71a4-415c-8d22-c46085187d8c","3","1768024994419","-0.36195","9.783","-1.1370001","0.005225","-0.0631125","0.008525","-0.004492074251174927","0.017497539520263672","0.045484008789062","15.3277668","74.1245442","0.02884402","0.048940143807152094","0.0"
"362021cb-71a4-415c-8d22-c46085187d8c","3","1768024994430","-0.36195","9.76395","-1.1179501","0.006325","-0.0495","0.0064625","-0.00999954342842102","0.00124359130859375","0.02440208435058544","15.3277668","74.1245442","0.02884402","0.026400740686063615","0.0"
"362021cb-71a4-415c-8d22-c46085187d8c","3","1768024994441","-0.36195","9.76395","-1.1179501","0.006325","-0.0495","0.0064625","-0.00999954342842102","0.00124359130859375","0.02440208435058544","15.3277668","74.1245442","0.02884402","0.026400740686063615","0.0"
"362021cb-71a4-415c-8d22-c46085187d8c","3","1768024994452","-0.34305","9.76395","-1.1179501","0.005225","-0.029424999","0.003575","0.007566690444946289","-0.004958033561706543","0.02372592926025341","15.3277668","74.1245442","0.02884402","0.025392058214158197","0.0"
"362021cb-71a4-415c-8d22-c46085187d8c","3","1768024994463","-0.34305","9.76395","-1.1179501","0.005225","-0.029424999","0.003575","0.007566690444946289","-0.004958033561706543","0.02372592926025341","15.3277668","74.1245442","0.02884402","0.025392058214158197","0.0"
"362021cb-71a4-415c-8d22-c46085187d8c","3","1768024994474","-0.34305","9.783","-1.1179501","0.0034375","-0.02035","0.0026125","0.007557392120361328","-0.008000850677490234","0.04263824462890575","15.3277668","74.1245442","0.02884402","0.044035754702954795","0.0"
"362021cb-71a4-415c-8d22-c46085187d8c","3","1768024994485","-0.34305","9.783","-1.1179501","0.0034375","-0.02035","0.0026125","0.007557392120361328","-0.008000850677490234","0.04263824462890575","15.3277668","74.1245442","0.02884402","0.044035754702954795","0.0"
"362021cb-71a4-415c-8d22-c46085187d8c","3","1768024994496","-0.24705002","9.76395","-1.176","0.0","0.0","0.0","0.11232173442840576","0.024811625480651855","0.02694744110107372","15.3277668","74.1245442","0.02884402","0.1181437825951636","0.0"
"362021cb-71a4-415c-8d22-c46085187d8c","3","1768024994507","-0.24705002","9.76395","-1.176","0.0","0.0","0.0","0.11232173442840576","0.024811625480651855","0.02694744110107372","15.3277668","74.1245442","0.02884402","0.1181437825951636","0.0"
"362021cb-71a4-415c-8d22-c46085187d8c","3","1768024994518","-0.24705002","9.76395","-1.176","0.0","0.0","0.0","0.11232173442840576","0.024811625480651855","0.02694744110107372","15.3277668","74.1245442","0.02884402","0.1181437825951636","0.0"
"362021cb-71a4-415c-8d22-c46085187d8c","3","1768024994529","-0.40005","9.783","-1.1179501","0.001375","0.00715","0.0044","-0.05341726541519165","0.006774783134460449","0.044646682739257315","15.3277668","74.1245442","0.02884402","0.06994732454194297","0.0"
"362021cb-71a4-415c-8d22-c46085187d8c","3","1768024994540","-0.40005","9.783","-1.1179501","0.001375","0.00715","0.0044","-0.05341726541519165","0.006774783134460449","0.044646682739257315","15.3277668","74.1245442","0.02884402","0.06994732454194297","0.0"
"362021cb-71a4-415c-8d22-c46085187d8c","3","1768024994551","-0.40005","9.802051","-1.1370001","0.001375","0.0050875","0.0044","-0.04627293348312378","0.02247607707977295","0.065747680664062","15.3277668","74.1245442","0.02884402","0.08348123098477266","0.0"
"362021cb-71a4-415c-8d22-c46085187d8c","3","1768024994562","-0.40005","9.802051","-1.1370001","0.001375","0.0050875","0.0044","-0.04627293348312378","0.02247607707977295","0.065747680664062","15.3277668","74.1245442","0.02884402","0.08348123098477266","0.0"
"362021cb-71a4-415c-8d22-c46085187d8c","3","1768024994573","-0.40005","9.783","-1.09905","0.0039875","1.375E-4","0.00275","-0.054727762937545776","-0.011540532112121582","0.0425085449218745","15.3277668","74.1245442","0.02884402","0.07025160716278413","0.0"
"362021cb-71a4-415c-8d22-c46085187d8c","3","1768024994584","-0.40005","9.783","-1.09905","0.0039875","1.375E-4","0.00275","-0.054727762937545776","-0.011540532112121582","0.0425085449218745","15.3277668","74.1245442","0.02884402","0.07025160716278413","0.0"
"362021cb-71a4-415c-8d22-c46085187d8c","3","1768024994595","-0.381","9.783","-1.1179501","0.0017875","-0.0042625","0.001375","-0.030985504388809204","6.886720657348633E-4","0.043990554809569815","15.3277668","74.1245442","0.02884402","0.05381212376311498","0.0"
"362021cb-71a4-415c-8d22-c46085187d8c","3","1768024994606","-0.381","9.783","-1.1179501","0.0017875","-0.0042625","0.001375","-0.030985504388809204","6.886720657348633E-4","0.043990554809569815","15.3277668","74.1245442","0.02884402","0.05381212376311498","0.0"
"362021cb-71a4-415c-8d22-c46085187d8c","3","1768024994617","-0.40005","9.783","-1.09905","0.0017875","-0.0105875","-0.0022","-0.05269813537597656","-0.012248873710632324","0.042518081665038565","15.3277668","74.1245442","0.02884402","0.06881072334860795","0.0"
"362021cb-71a4-415c-8d22-c46085187d8c","3","1768024994628","-0.40005","9.783","-1.09905","0.0017875","-0.0105875","-0.0022","-0.05269813537597656","-0.012248873710632324","0.042518081665038565","15.3277668","74.1245442","0.02884402","0.06881072334860795","0.0"
"362021cb-71a4-415c-8d22-c46085187d8c","3","1768024994639","-0.381","9.76395","-1.09905","2.75E-4","0.0108624995","-0.011","-0.03260505199432373","-0.01522529125213623","0.02292961120605419","15.3277668","74.1245442","0.02884402","0.04266926269957961","0.0"
"362021cb-71a4-415c-8d22-c46085187d8c","3","1768024994650","-0.381","9.76395","-1.09905","2.75E-4","0.0108624995","-0.011","-0.03260505199432373","-0.01522529125213623","0.02292961120605419","15.3277668","74.1245442","0.02884402","0.04266926269957961","0.0"
"362021cb-71a4-415c-8d22-c46085187d8c","3","1768024994661","-0.381","9.76395","-1.09905","2.75E-4","0.0108624995","-0.011","-0.03260505199432373","-0.01522529125213623","0.02292961120605419","15.3277668","74.1245442","0.02884402","0.04266926269957961","0.0"
"362021cb-71a4-415c-8d22-c46085187d8c","3","1768024994672","-0.36195","9.74505","-1.09905","-0.002475","0.044","-0.015262499","-0.010885000228881836","-0.017910122871398926","0.003486099243163565","15.3277668","74.1245442","0.02884402","0.021246378966415666","0.0"
"362021cb-71a4-415c-8d22-c46085187d8c","3","1768024994683","-0.36195","9.74505","-1.09905","-0.002475","0.044","-0.015262499","-0.010885000228881836","-0.017910122871398926","0.003486099243163565","15.3277668","74.1245442","0.02884402","0.021246378966415666","0.0"
"362021cb-71a4-415c-8d22-c46085187d8c","3","1768024994693","-0.34305","9.76395","-1.09905","-0.0066","0.0539","-0.0138875","0.009804874658584595","-0.02500307559967041","0.02156108856201122","15.3277668","74.1245442","0.02884402","0.034440817302907885","0.0"
"362021cb-71a4-415c-8d22-c46085187d8c","3","1768024994704","-0.34305","9.76395","-1.09905","-0.0066","0.0539","-0.0138875","0.009804874658584595","-0.02500307559967041","0.02156108856201122","15.3277668","74.1245442","0.02884402","0.034440817302907885","0.0"
"362021cb-71a4-415c-8d22-c46085187d8c","3","1768024994715","-0.381","9.76395","-1.1179501","-0.008525","0.05115","-0.0122375","-0.019402027130126953","0.0030552148818969727","0.02510684967040966","15.3277668","74.1245442","0.02884402","0.0318767453656313","0.0"
"362021cb-71a4-415c-8d22-c46085187d8c","3","1768024994726","-0.381","9.76395","-1.1179501","-0.008525","0.05115","-0.0122375","-0.019402027130126953","0.0030552148818969727","0.02510684967040966","15.3277668","74.1245442","0.02884402","0.0318767453656313","0.0"
"362021cb-71a4-415c-8d22-c46085187d8c","3","1768024994738","-0.381","9.76395","-1.1179501","-0.0075625","0.048125","-0.011275","-0.0168989896774292","0.00426793098449707","0.025110664367675284","15.3277668","74.1245442","0.02884402","0.03056691924274224","0.0"
"362021cb-71a4-415c-8d22-c46085187d8c","3","1768024994749","-0.381","9.76395","-1.1179501","-0.0075625","0.048125","-0.011275","-0.0168989896774292","0.00426793098449707","0.025110664367675284","15.3277668","74.1245442","0.02884402","0.03056691924274224","0.0"
"362021cb-71a4-415c-8d22-c46085187d8c","3","1768024994760","-0.381","9.783","-1.1179501","-0.009625","0.039875","-0.017875","-0.015090107917785645","0.0029031038284301758","0.04402679443359325","15.3277668","74.1245442","0.02884402","0.04663151291677057","0.0"
"362021cb-71a4-415c-8d22-c46085187d8c","3","1768024994770","-0.381","9.783","-1.1179501","-0.009625","0.039875","-0.017875","-0.015090107917785645","0.0029031038284301758","0.04402679443359325","15.3277668","74.1245442","0.02884402","0.04663151291677057","0.0"
"362021cb-71a4-415c-8d22-c46085187d8c","3","1768024994781","-0.381","9.783","-1.1179501","-0.009625","0.039875","-0.017875","-0.015090107917785645","0.0029031038284301758","0.04402679443359325","15.3277668","74.1245442","0.02884402","0.04663151291677057","0.0"
"362021cb-71a4-415c-8d22-c46085187d8c","3","1768024994792","-0.381","9.783","-1.1179501","-0.0092124995","0.0336875","-0.0188375","-0.011416733264923096","0.0037806034088134766","0.04403060913085888","15.3277668","74.1245442","0.02884402","0.04564350228687109","0.0"
"362021cb-71a4-415c-8d22-c46085187d8c","3","1768024994803","-0.381","9.783","-1.1179501","-0.0092124995","0.0336875","-0.0188375","-0.011416733264923096","0.0037806034088134766","0.04403060913085888","15.3277668","74.1245442","0.02884402","0.04564350228687109","0.0"
"362021cb-71a4-415c-8d22-c46085187d8c","3","1768024994814","-0.381","9.783","-1.1179501","-0.0092124995","0.0336875","-0.0188375","-0.011416733264923096","0.0037806034088134766","0.04403060913085888","15.3277668","74.1245442","0.02884402","0.04564350228687109","0.0"
"362021cb-71a4-415c-8d22-c46085187d8c","3","1768024994825","-0.36195","9.76395","-1.1179501","-0.0088","0.0320375","-0.015262499","0.010644316673278809","0.0022929906845092773","0.024401130676269034","15.3277668","74.1245442","0.02884402","0.026720300559698897","0.0"
"362021cb-71a4-415c-8d22-c46085187d8c","3","1768024994836","-0.36195","9.783","-1.1370001","-0.0070125","0.0435875","-0.012375","0.018129825592041016","0.01957392692565918","0.04546398162841747","15.3277668","74.1245442","0.02884402","0.05271435114651372","0.0"
"362021cb-71a4-415c-8d22-c46085187d8c","3","1768024994847","-0.36195","9.783","-1.1370001","-0.0070125","0.0435875","-0.012375","0.018129825592041016","0.01957392692565918","0.04546398162841747","15.3277668","74.1245442","0.02884402","0.05271435114651372","0.0"
"362021cb-71a4-415c-8d22-c46085187d8c","3","1768024994858","-0.36195","9.76395","-1.1560501","-0.0053625","0.0490875","-0.009075","0.023362308740615845","0.03967142105102539","0.02870220184326122","15.3277668","74.1245442","0.02884402","0.054253437757905296","0.0"
"362021cb-71a4-415c-8d22-c46085187d8c","3","1768024994869","-0.36195","9.76395","-1.1560501","-0.0053625","0.0490875","-0.009075","0.023362308740615845","0.03967142105102539","0.02870220184326122","15.3277668","74.1245442","0.02884402","0.054253437757905296","0.0"
"362021cb-71a4-415c-8d22-c46085187d8c","4","1768024994880","-0.36195","9.76395","-1.1560501","-0.0053625","0.0490875","-0.009075","0.023362308740615845","0.03967142105102539","0.02870220184326122","15.3277666","74.1245424","0.06821232","0.054253437757905296","0.0"
"362021cb-71a4-415c-8d22-c46085187d8c","4","1768024994891","-0.36195","9.74505","-1.1370001","-0.0012375","0.0413875","-0.001375","0.01912146806716919","0.023255586624145508","0.007784309387206534","15.3277666","74.1245424","0.06821232","0.031097400581281038","0.0"
"362021cb-71a4-415c-8d22-c46085187d8c","4","1768024994902","-0.381","9.76395","-1.09905","0.004675","0.0317625","8.25E-4","-0.009756237268447876","-0.011051416397094727","0.022983970642089346","15.3277666","74.1245424","0.06821232","0.027305326888661312","0.0"
"362021cb-71a4-415c-8d22-c46085187d8c","4","1768024994913","-0.381","9.76395","-1.09905","0.004675","0.0317625","8.25E-4","-0.009756237268447876","-0.011051416397094727","0.022983970642089346","15.3277666","74.1245424","0.06821232","0.027305326888661312","0.0"
"362021cb-71a4-415c-8d22-c46085187d8c","4","1768024994924","-0.381","9.76395","-1.09905","0.004675","0.0317625","8.25E-4","-0.009756237268447876","-0.011051416397094727","0.022983970642089346","15.3277666","74.1245424","0.06821232","0.027305326888661312","0.0"
"362021cb-71a4-415c-8d22-c46085187d8c","4","1768024994935","-0.381","9.74505","-1.1179501","0.0066","-0.0039875","0.0034375","-0.006637156009674072","0.007840871810913086","0.006357612609862784","15.3277666","74.1245424","0.06821232","0.01208099121550092","0.0"
"362021cb-71a4-415c-8d22-c46085187d8c","4","1768024994946","-0.381","9.74505","-1.1179501","0.0066","-0.0039875","0.0034375","-0.006637156009674072","0.007840871810913086","0.006357612609862784","15.3277666","74.1245424","0.06821232","0.01208099121550092","0.0"
"362021cb-71a4-415c-8d22-c46085187d8c","4","1768024994957","-0.36195","9.76395","-1.1179501","0.007975","-0.016775","0.00385","0.010075569152832031","-6.808042526245117E-4","0.02440208435058544","15.3277666","74.1245424","0.06821232","0.02640913305727734","0.0"
"362021cb-71a4-415c-8d22-c46085187d8c","4","1768024994968","-0.36195","9.76395","-1.1179501","0.007975","-0.016775","0.00385","0.010075569152832031","-6.808042526245117E-4","0.02440208435058544","15.3277666","74.1245424","0.06821232","0.02640913305727734","0.0"
"362021cb-71a4-415c-8d22-c46085187d8c","4","1768024994979","-0.36195","9.783","-1.1179501","0.00715","-0.02255","0.0033","0.009005963802337646","-0.004370570182800293","0.043314399719237784","15.3277666","74.1245424","0.06821232","0.04445611871013601","0.0"
"362021cb-71a4-415c-8d22-c46085187d8c","4","1768024994990","-0.36195","9.783","-1.1179501","0.00715","-0.02255","0.0033","0.009005963802337646","-0.004370570182800293","0.043314399719237784","15.3277666","74.1245424","0.06821232","0.04445611871013601","0.0"
"362021cb-71a4-415c-8d22-c46085187d8c","4","1768024995001","-0.36195","9.783","-1.1179501","0.0050875","-0.0158125","0.003025","0.008244931697845459","-0.005127310752868652","0.04331535339355419","15.3277666","74.1245424","0.06821232","0.0443901797007751","0.0"
"362021cb-71a4-415c-8d22-c46085187d8c","4","1768024995012","-0.36195","9.783","-1.1179501","0.0050875","-0.0158125","0.003025","0.008244931697845459","-0.005127310752868652","0.04331535339355419","15.3277666","74.1245424","0.06821232","0.0443901797007751","0.0"
"362021cb-71a4-415c-8d22-c46085187d8c","4","1768024995023","-0.36195","9.76395","-1.09905","0.00385","-0.0121","0.0026125","0.002785921096801758","-0.0217970609664917","0.022252502441405753","15.3277666","74.1245424","0.06821232","0.03127374438789398","0.0"
"362021cb-71a4-415c-8d22-c46085187d8c","4","1768024995034","-0.36195","9.76395","-1.09905","0.00385","-0.0121","0.0026125","0.002785921096801758","-0.0217970609664917","0.022252502441405753","15.3277666","74.1245424","0.06821232","0.03127374438789398","0.0"
"362021cb-71a4-415c-8d22-c46085187d8c","4","1768024995045","-0.36195","9.76395","-1.09905","0.00385","-0.0121","0.0026125","0.002785921096801758","-0.0217970609664917","0.022252502441405753","15.3277666","74.1245424","0.06821232","0.03127374438789398","0.0"
"362021cb-71a4-415c-8d22-c46085187d8c","4","1768024995056","-0.36195","9.74505","-1.1179501","0.0023375","-0.010175","0.0034375","0.006945967674255371","-0.0015048980712890625","0.005639495849608878","15.3277666","74.1245424","0.06821232","0.009072766864332284","0.0"
"362021cb-71a4-415c-8d22-c46085187d8c","4","1768024995067","-0.36195","9.74505","-1.1179501","0.0023375","-0.010175","0.0034375","0.006945967674255371","-0.0015048980712890625","0.005639495849608878","15.3277666","74.1245424","0.06821232","0.009072766864332284","0.0"
"362021cb-71a4-415c-8d22-c46085187d8c","4","1768024995078","-0.36195","9.74505","-1.1179501","8.25E-4","-0.0103124995","0.00385","0.006531447172164917","-0.0020755529403686523","0.005640449523925284","15.3277666","74.1245424","0.06821232","0.008875944625954073","0.0"
"362021cb-71a4-415c-8d22-c46085187d8c","4","1768024995089","-0.36195","9.74505","-1.1179501","8.25E-4","-0.0103124995","0.00385","0.006531447172164917","-0.0020755529403686523","0.005640449523925284","15.3277666","74.1245424","0.06821232","0.008875944625954073","0.0"
"362021cb-71a4-415c-8d22-c46085187d8c","4","1768024995099","-0.381","9.74505","-1.09905","0.0","0.0","0.0","-0.016765117645263672","-0.015017151832580566","0.004203262329101065","15.3277666","74.1245424","0.06821232","0.022896537577318306","0.0"
"362021cb-71a4-415c-8d22-c46085187d8c","4","1768024995110","-0.381","9.74505","-1.09905","0.0","0.0","0.0","-0.016765117645263672","-0.015017151832580566","0.004203262329101065","15.3277666","74.1245424","0.06821232","0.022896537577318306","0.0"
"362021cb-71a4-415c-8d22-c46085187d8c","4","1768024995121","-0.36195","9.76395","-1.1179501","-0.00715","0.0369875","-0.0028875","0.00682830810546875","-0.003814101219177246","0.024403038024901846","15.3277666","74.1245424","0.06821232","0.025625796076183566","0.0"
"362021cb-71a4-415c-8d22-c46085187d8c","4","1768024995132","-0.36195","9.76395","-1.1179501","-0.00715","0.0369875","-0.0028875","0.00682830810546875","-0.003814101219177246","0.024403038024901846","15.3277666","74.1245424","0.06821232","0.025625796076183566","0.0"
"362021cb-71a4-415c-8d22-c46085187d8c","4","1768024995143","-0.40005","9.74505","-1.1179501","-0.008525","0.0462","-0.0042625","-0.029834270477294922","0.009279131889343262","0.007070960998534659","15.3277666","74.1245424","0.06821232","0.032034114206186765","0.0"
"362021cb-71a4-415c-8d22-c46085187d8c","4","1768024995154","-0.40005","9.74505","-1.1179501","-0.008525","0.0462","-0.0042625","-0.029834270477294922","0.009279131889343262","0.007070960998534659","15.3277666","74.1245424","0.06821232","0.032034114206186765","0.0"
"362021cb-71a4-415c-8d22-c46085187d8c","4","1768024995166","-0.36195","9.76395","-1.1370001","-0.0050875","0.0352","-0.0059125","0.011759430170059204","0.01772165298461914","0.02656597137451122","15.3277666","74.1245424","0.06821232","0.03403075105699415","0.0"
"362021cb-71a4-415c-8d22-c46085187d8c","4","1768024995177","-0.36195","9.76395","-1.1370001","-0.0050875","0.0352","-0.0059125","0.011759430170059204","0.01772165298461914","0.02656597137451122","15.3277666","74.1245424","0.06821232","0.03403075105699415","0.0"
"362021cb-71a4-415c-8d22-c46085187d8c","4","1768024995188","-0.36195","9.76395","-1.1370001","-0.0050875","0.0352","-0.0059125","0.011759430170059204","0.01772165298461914","0.02656597137451122","15.3277666","74.1245424","0.06821232","0.03403075105699415","0.0"
"362021cb-71a4-415c-8d22-c46085187d8c","4","1768024995199","-0.381","9.76395","-1.1179501","-0.003575","0.0265375","-0.0050875","-0.010470539331436157","0.00488889217376709","0.025120201110839346","15.3277666","74.1245424","0.06821232","0.02765064130227158","0.0"
"362021cb-71a4-415c-8d22-c46085187d8c","4","1768024995210","-0.381","9.76395","-1.1179501","-0.003575","0.0265375","-0.0050875","-0.010470539331436157","0.00488889217376709","0.025120201110839346","15.3277666","74.1245424","0.06821232","0.02765064130227158","0.0"
"362021cb-71a4-415c-8d22-c46085187d8c","4","1768024995221","-0.36195","9.76395","-1.1179501","-0.0017875","0.021175","-0.004675","0.008293837308883667","9.670257568359375E-4","0.024403038024901846","15.3277666","74.1245424","0.06821232","0.025792075158184154","0.0"
"362021cb-71a4-415c-8d22-c46085187d8c","4","1768024995231","-0.36195","9.76395","-1.1179501","-0.0017875","0.021175","-0.004675","0.008293837308883667","9.670257568359375E-4","0.024403038024901846","15.3277666","74.1245424","0.06821232","0.025792075158184154","0.0"
"362021cb-71a4-415c-8d22-c46085187d8c","4","1768024995242","-0.34305","9.76395","-1.1370001","-2.75E-4","0.014162499","-0.0037125","0.03110070526599884","0.014604568481445312","0.025853576660155753","15.3277666","74.1245424","0.06821232","0.042999473423453734","0.0"
"362021cb-71a4-415c-8d22-c46085187d8c","4","1768024995253","-0.34305","9.76395","-1.1370001","-2.75E-4","0.014162499","-0.0037125","0.03110070526599884","0.014604568481445312","0.025853576660155753","15.3277666","74.1245424","0.06821232","0.042999473423453734","0.0"
"362021cb-71a4-415c-8d22-c46085187d8c","4","1768024995264","-0.34305","9.76395","-1.1179501","6.875E-4","0.00935","-0.0026125","0.026339486241340637","-0.003389120101928711","0.023693504333495596","15.3277666","74.1245424","0.06821232","0.03558984150181684","0.0"
"362021cb-71a4-415c-8d22-c46085187d8c","4","1768024995275","-0.34305","9.76395","-1.1179501","6.875E-4","0.00935","-0.0026125","0.026339486241340637","-0.003389120101928711","0.023693504333495596","15.3277666","74.1245424","0.06821232","0.03558984150181684","0.0"
"362021cb-71a4-415c-8d22-c46085187d8c","4","1768024995286","-0.36195","9.76395","-1.1370001","0.0","0.0","0.0","0.012527257204055786","0.018926143646240234","0.02656406402587841","15.3277666","74.1245424","0.06821232","0.034939670633044824","0.0"
"362021cb-71a4-415c-8d22-c46085187d8c","4","1768024995297","-0.36195","9.76395","-1.1370001","0.0","0.0","0.0","0.012527257204055786","0.018926143646240234","0.02656406402587841","15.3277666","74.1245424","0.06821232","0.034939670633044824","0.0"
"362021cb-71a4-415c-8d22-c46085187d8c","4","1768024995308","-0.36195","9.76395","-1.1370001","0.0","0.0","0.0","0.012527257204055786","0.018926143646240234","0.02656406402587841","15.3277666","74.1245424","0.06821232","0.034939670633044824","0.0"
"362021cb-71a4-415c-8d22-c46085187d8c","4","1768024995318","-0.381","9.76395","-1.1179501","0.0037125","-0.005775","8.25E-4","-0.01034623384475708","0.005289435386657715","0.02511924743652294","15.3277666","74.1245424","0.06821232","0.027676691877052215","0.0"
"362021cb-71a4-415c-8d22-c46085187d8c","4","1768024995329","-0.381","9.76395","-1.1179501","0.0037125","-0.005775","8.25E-4","-0.01034623384475708","0.005289435386657715","0.02511924743652294","15.3277666","74.1245424","0.06821232","0.027676691877052215","0.0"
"362021cb-71a4-415c-8d22-c46085187d8c","4","1768024995340","-0.36195","9.76395","-1.1179501","0.0053625","-0.017324999","0.0022","0.007739156484603882","-3.877878189086914E-4","0.024403038024901846","15.3277666","74.1245424","0.06821232","0.02560377291202384","0.0"
"362021cb-71a4-415c-8d22-c46085187d8c","4","1768024995351","-0.36195","9.76395","-1.1179501","0.0053625","-0.017324999","0.0022","0.007739156484603882","-3.877878189086914E-4","0.024403038024901846","15.3277666","74.1245424","0.06821232","0.02560377291202384","0.0"
"362021cb-71a4-415c-8d22-c46085187d8c","4","1768024995362","-0.36195","9.783","-1.1370001","0.0067375","-0.02365","0.003575","0.011934280395507812","0.014719247817993164","0.04548210144042919","15.3277666","74.1245424","0.06821232","0.04927174500993028","0.0"
"362021cb-71a4-415c-8d22-c46085187d8c","4","1768024995373","-0.36195","9.783","-1.1370001","0.0067375","-0.02365","0.003575","0.011934280395507812","0.014719247817993164","0.04548210144042919","15.3277666","74.1245424","0.06821232","0.04927174500993028","0.0"
"362021cb-71a4-415c-8d22-c46085187d8c","4","1768024995384","-0.381","9.76395","-1.1179501","0.006875","-0.0221375","0.0037125","-0.011299371719360352","0.0022023916244506836","0.025120201110839346","15.3277666","74.1245424","0.06821232","0.02763242359925646","0.0"
"362021cb-71a4-415c-8d22-c46085187d8c","4","1768024995395","-0.381","9.76395","-1.1179501","0.006875","-0.0221375","0.0037125","-0.011299371719360352","0.0022023916244506836","0.025120201110839346","15.3277666","74.1245424","0.06821232","0.02763242359925646","0.0"
"362021cb-71a4-415c-8d22-c46085187d8c","4","1768024995405","-0.36195","9.76395","-1.1370001","0.0055","-0.02475","0.005775","0.010863065719604492","0.014460206031799316","0.02657360076904247","15.3277666","74.1245424","0.06821232","0.032144362073977854","0.0"
"362021cb-71a4-415c-8d22-c46085187d8c","4","1768024995416","-0.36195","9.76395","-1.1370001","0.0055","-0.02475","0.005775","0.010863065719604492","0.014460206031799316","0.02657360076904247","15.3277666","74.1245424","0.06821232","0.032144362073977854","0.0"
"362021cb-71a4-415c-8d22-c46085187d8c","4","1768024995428","-0.36195","9.76395","-1.1370001","0.0055","-0.02475","0.005775","0.010863065719604492","0.014460206031799316","0.02657360076904247","15.3277666","74.1245424","0.06821232","0.032144362073977854","0.0"
"362021cb-71a4-415c-8d22-c46085187d8c","4","1768024995438","-0.36195","9.783","-1.09905","0.0044","-0.0176","0.0056375","5.412697792053223E-4","-0.024744153022766113","0.041162910461425284","15.3277666","74.1245424","0.06821232","0.04803073265569933","0.0"
"362021cb-71a4-415c-8d22-c46085187d8c","4","1768024995449","-0.36195","9.783","-1.09905","0.0044","-0.0176","0.0056375","5.412697792053223E-4","-0.024744153022766113","0.041162910461425284","15.3277666","74.1245424","0.06821232","0.04803073265569933","0.0"
"362021cb-71a4-415c-8d22-c46085187d8c","4","1768024995460","-0.36195","9.76395","-1.1560501","0.0","0.0","0.0","0.013340413570404053","0.03108978271484375","0.028751792907714346","15.3277666","74.1245424","0.06821232","0.04439827495403071","0.0"
"362021cb-71a4-415c-8d22-c46085187d8c","4","1768024995471","-0.36195","9.76395","-1.1560501","0.0","0.0","0.0","0.013340413570404053","0.03108978271484375","0.028751792907714346","15.3277666","74.1245424","0.06821232","0.04439827495403071","0.0"
"362021cb-71a4-415c-8d22-c46085187d8c","4","1768024995482","-0.36195","9.74505","-1.1179501","0.0015125","0.01815","0.0017875","0.0035412609577178955","-0.0031129121780395508","0.005640449523925284","15.3277666","74.1245424","0.06821232","0.007351559170053178","0.0"
"362021cb-71a4-415c-8d22-c46085187d8c","4","1768024995493","-0.36195","9.74505","-1.1179501","0.0015125","0.01815","0.0017875","0.0035412609577178955","-0.0031129121780395508","0.005640449523925284","15.3277666","74.1245424","0.06821232","0.007351559170053178","0.0"
"362021cb-71a4-415c-8d22-c46085187d8c","4","1768024995504","-0.381","9.76395","-1.1179501","0.0012375","0.0160875","9.625E-4","-0.015021264553070068","-9.493827819824219E-4","0.02511447906494091","15.3277666","74.1245424","0.06821232","0.029279289184394472","0.0"
"362021cb-71a4-415c-8d22-c46085187d8c","4","1768024995515","-0.381","9.76395","-1.1179501","0.0012375","0.0160875","9.625E-4","-0.015021264553070068","-9.493827819824219E-4","0.02511447906494091","15.3277666","74.1245424","0.06821232","0.029279289184394472","0.0"
"362021cb-71a4-415c-8d22-c46085187d8c","4","1768024995525","-0.381","9.783","-1.1179501","8.25E-4","0.019524999","-8.25E-4","-0.015160143375396729","-0.0030989646911621094","0.04402679443359325","15.3277666","74.1245424","0.06821232","0.046666820733981144","0.0"
"362021cb-71a4-415c-8d22-c46085187d8c","4","1768024995536","-0.381","9.783","-1.1179501","8.25E-4","0.019524999","-8.25E-4","-0.015160143375396729","-0.0030989646911621094","0.04402679443359325","15.3277666","74.1245424","0.06821232","0.046666820733981144","0.0"
"362021cb-71a4-415c-8d22-c46085187d8c","4","1768024995547","-0.381","9.783","-1.1179501","8.25E-4","0.019524999","-8.25E-4","-0.015160143375396729","-0.0030989646911621094","0.04402679443359325","15.3277666","74.1245424","0.06821232","0.046666820733981144","0.0"
"362021cb-71a4-415c-8d22-c46085187d8c","4","1768024995558","-0.36195","9.76395","-1.1179501","1.375E-4","0.017875","-0.0042625","0.002779930830001831","-0.006108999252319336","0.02440494537353466","15.3277666","74.1245424","0.06821232","0.025311049878850217","0.0"
"362021cb-71a4-415c-8d22-c46085187d8c","4","1768024995569","-0.36195","9.76395","-1.1179501","1.375E-4","0.017875","-0.0042625","0.002779930830001831","-0.006108999252319336","0.02440494537353466","15.3277666","74.1245424","0.06821232","0.025311049878850217","0.0"
"362021cb-71a4-415c-8d22-c46085187d8c","4","1768024995580","-0.40005","9.76395","-1.09905","0.0","0.0143","-0.0034375","-0.03730842471122742","-0.014094352722167969","0.023671569824218253","15.3277666","74.1245424","0.06821232","0.04637793172439936","0.0"
"362021cb-71a4-415c-8d22-c46085187d8c","4","1768024995592","-0.40005","9.76395","-1.09905","0.0","0.0143","-0.0034375","-0.03730842471122742","-0.014094352722167969","0.023671569824218253","15.3277666","74.1245424","0.06821232","0.04637793172439936","0.0"
"362021cb-71a4-415c-8d22-c46085187d8c","4","1768024995603","-0.381","9.802051","-1.02195","-0.00165","0.0067375","-0.00495","-0.03592011332511902","-0.09545934200286865","0.05201572418212841","15.3277666","74.1245424","0.06821232","0.11449181664687348","0.0"
"362021cb-71a4-415c-8d22-c46085187d8c","4","1768024995614","-0.381","9.802051","-1.02195","-0.00165","0.0067375","-0.00495","-0.03592011332511902","-0.09545934200286865","0.05201572418212841","15.3277666","74.1245424","0.06821232","0.11449181664687348","0.0"
"362021cb-71a4-415c-8d22-c46085187d8c","4","1768024995625","-0.45795003","9.76395","-1.09905","-0.0070125","-0.0020625","-0.004125","-0.08872902393341064","0.003072977066040039","0.02587932586669872","15.3277666","74.1245424","0.06821232","0.09247714519565874","0.0"
"362021cb-71a4-415c-8d22-c46085187d8c","4","1768024995636","-0.45795003","9.76395","-1.09905","-0.0070125","-0.0020625","-0.004125","-0.08872902393341064","0.003072977066040039","0.02587932586669872","15.3277666","74.1245424","0.06821232","0.09247714519565874","0.0"
"362021cb-71a4-415c-8d22-c46085187d8c","4","1768024995647","-0.45795003","9.76395","-1.09905","-0.0070125","-0.0020625","-0.004125","-0.08872902393341064","0.003072977066040039","0.02587932586669872","15.3277666","74.1245424","0.06821232","0.09247714519565874","0.0"
"362021cb-71a4-415c-8d22-c46085187d8c","4","1768024995658","-1.932","10.06995","-1.04205","-0.0108624995","-0.0149875","-0.0061875","-1.5068966150283813","0.2674837112426758","0.38215869903564403","15.3277666","74.1245424","0.06821232","1.5774442035814658","0.0"
"362021cb-71a4-415c-8d22-c46085187d8c","4","1768024995670","-2.00895","10.41495","0.25995","-0.014575","-0.0792","-0.1387375","-1.8730440139770508","-0.9909100532531738","0.5863699340820308","15.3277666","74.1245424","0.06821232","2.1986419243544035","0.0"
"362021cb-71a4-415c-8d22-c46085187d8c","4","1768024995681","-2.00895","10.41495","0.25995","-0.014575","-0.0792","-0.1387375","-1.8730440139770508","-0.9909100532531738","0.5863699340820308","15.3277666","74.1245424","0.06821232","2.1986419243544035","0.0"
"362021cb-71a4-415c-8d22-c46085187d8c","4","1768024995691","-2.00895","10.41495","0.25995","-0.014575","-0.0792","-0.1387375","-1.8730440139770508","-0.9909100532531738","0.5863699340820308","15.3277666","74.1245424","0.06821232","2.1986419243544035","0.0"
"362021cb-71a4-415c-8d22-c46085187d8c","4","1768024995702","-3.00495","9.073951","0.70005006","-0.0633875","-0.1384625","-0.2393875","-2.8924131393432617","-0.9879363179206848","-0.7262616729736333","15.3277666","74.1245424","0.06821232","3.1415804867204478","0.0"
"362021cb-71a4-415c-8d22-c46085187d8c","4","1768024995713","-3.00495","9.073951","0.70005006","-0.0633875","-0.1384625","-0.2393875","-2.8924131393432617","-0.9879363179206848","-0.7262616729736333","15.3277666","74.1245424","0.06821232","3.1415804867204478","0.0"
"362021cb-71a4-415c-8d22-c46085187d8c","4","1768024995724","-2.832","10.491","-1.5970501","-0.1837","-0.2688125","-0.45155","-2.0011487007141113","1.0144670009613037","0.94165843963623","15.3277666","74.1245424","0.06821232","2.4331995469643126","0.0"
"362021cb-71a4-415c-8d22-c46085187d8c","4","1768024995735","-2.832","10.491","-1.5970501","-0.1837","-0.2688125","-0.45155","-2.0011487007141113","1.0144670009613037","0.94165843963623","15.3277666","74.1245424","0.06821232","2.4331995469643126","0.0"
"362021cb-71a4-415c-8d22-c46085187d8c","4","1768024995746","-2.29605","9.361951","-0.60105","-0.19855","-0.323125","-0.55165","-1.6127057075500488","0.08239394426345825","-0.28783470153808643","15.3277666","74.1245424","0.06821232","1.6402613440014102","0.0"
"362021cb-71a4-415c-8d22-c46085187d8c","4","1768024995757","-2.29605","9.361951","-0.60105","-0.19855","-0.323125","-0.55165","-1.6127057075500488","0.08239394426345825","-0.28783470153808643","15.3277666","74.1245424","0.06821232","1.6402613440014102","0.0"
"362021cb-71a4-415c-8d22-c46085187d8c","4","1768024995768","-2.124","8.863951","-1.19505","-0.1926375","-0.3559875","-0.60445","-1.1449360847473145","0.6794382929801941","-0.714032707214356","15.3277666","74.1245424","0.06821232","1.5107474107527743","0.0"
"362021cb-71a4-415c-8d22-c46085187d8c","4","1768024995778","-2.124","8.863951","-1.19505","-0.1926375","-0.3559875","-0.60445","-1.1449360847473145","0.6794382929801941","-0.714032707214356","15.3277666","74.1245424","0.06821232","1.5107474107527743","0.0"
"362021cb-71a4-415c-8d22-c46085187d8c","4","1768024995789","-2.124","8.863951","-1.19505","-0.1926375","-0.3559875","-0.60445","-1.1449360847473145","0.6794382929801941","-0.714032707214356","15.3277666","74.1245424","0.06821232","1.5107474107527743","0.0"
"362021cb-71a4-415c-8d22-c46085187d8c","4","1768024995800","-2.124","8.863951","-1.19505","-0.1926375","-0.3559875","-0.60445","-1.1449360847473145","0.6794382929801941","-0.714032707214356","15.3277666","74.1245424","0.06821232","1.5107474107527743","0.0"
"362021cb-71a4-415c-8d22-c46085187d8c","4","1768024995811","-1.7020501","10.72095","-0.064950004","-0.138875","-0.37125","-0.6436375","-0.7460923194885254","-0.7059893012046814","0.9967064285278315","15.3277666","74.1245424","0.06821232","1.4312576103846393","0.0"
"362021cb-71a4-415c-8d22-c46085187d8c","4","1768024995822","-0.822","9.073951","-0.08400001","-0.1326875","-0.3620375","-0.630575","0.11775834113359451","-0.7290900945663452","-0.7284856414794927","15.3277666","74.1245424","0.06821232","1.0373672072815325","0.0"
"362021cb-71a4-415c-8d22-c46085187d8c","4","1768024995833","-0.822","9.073951","-0.08400001","-0.1326875","-0.3620375","-0.630575","0.11775834113359451","-0.7290900945663452","-0.7284856414794927","15.3277666","74.1245424","0.06821232","1.0373672072815325","0.0"
"362021cb-71a4-415c-8d22-c46085187d8c","4","1768024995844","1.6669501","5.742","-2.0370002","-0.1915375","-0.3422375","-0.517275","2.8264734745025635","0.7992029190063477","-4.21795373916626","15.3277666","74.1245424","0.06821232","5.139923282847858","0.0"
"362021cb-71a4-415c-8d22-c46085187d8c","4","1768024995855","1.6669501","5.742","-2.0370002","-0.1915375","-0.3422375","-0.517275","2.8264734745025635","0.7992029190063477","-4.21795373916626","15.3277666","74.1245424","0.06821232","5.139923282847858","0.0"
"362021cb-71a4-415c-8d22-c46085187d8c","4","1768024995867","2.31795","8.61495","-1.25205","-0.13805","-0.301675","-0.4013625","3.6125593185424805","-0.4812227487564087","-1.5713258361816411","15.3277666","74.1245424","0.06821232","3.968781305055838","0.0"
"362021cb-71a4-415c-8d22-c46085187d8c","4","1768024995877","2.31795","8.61495","-1.25205","-0.13805","-0.301675","-0.4013625","3.6125593185424805","-0.4812227487564087","-1.5713258361816411","15.3277666","74.1245424","0.06821232","3.968781305055838","0.0"
"362021cb-71a4-415c-8d22-c46085187d8c","5","1768024995889","1.6480501","9.534","-0.35205","-0.082499996","-0.2699125","-0.3122625","2.8362860679626465","-1.2312068939208984","-0.6352086639404302","15.3277653","74.124542","0.079057544","3.156561281157447","0.0"
"362021cb-71a4-415c-8d22-c46085187d8c","5","1768024995900","1.6480501","9.534","-0.35205","-0.082499996","-0.2699125","-0.3122625","2.8362860679626465","-1.2312068939208984","-0.6352086639404302","15.3277653","74.124542","0.079057544","3.156561281157447","0.0"
"362021cb-71a4-415c-8d22-c46085187d8c","5","1768024995912","1.6480501","9.534","-0.35205","-0.082499996","-0.2699125","-0.3122625","2.8362860679626465","-1.2312068939208984","-0.6352086639404302","15.3277653","74.124542","0.079057544","3.156561281157447","0.0"
"362021cb-71a4-415c-8d22-c46085187d8c","5","1768024995923","0.231","9.61095","-1.1179501","-0.1038125","-0.0900625","0.2448875","1.744849443435669","-0.08346033096313477","-0.2904382324218755","15.3277653","74.124542","0.079057544","1.7708245463496894","0.0"
"362021cb-71a4-415c-8d22-c46085187d8c","5","1768024995933","0.192","8.30805","-1.5589501","-0.0848375","0.0279125","0.5218125","1.6381688117980957","0.5205564498901367","-1.531333503723145","15.3277653","74.124542","0.079057544","2.3020769694115812","0.0"
"362021cb-71a4-415c-8d22-c46085187d8c","5","1768024995944","0.192","8.30805","-1.5589501","-0.0848375","0.0279125","0.5218125","1.6381688117980957","0.5205564498901367","-1.531333503723145","15.3277653","74.124542","0.079057544","2.3020769694115812","0.0"
"362021cb-71a4-415c-8d22-c46085187d8c","5","1768024995955","0.192","8.30805","-1.5589501","-0.0848375","0.0279125","0.5218125","1.6381688117980957","0.5205564498901367","-1.531333503723145","15.3277653","74.124542","0.079057544","2.3020769694115812","0.0"
"362021cb-71a4-415c-8d22-c46085187d8c","5","1768024995966","1.4940001","7.734","-1.5970501","0.056925","0.1722875","0.7605125","2.714447498321533","0.25842952728271484","-2.249421176910401","15.3277653","74.124542","0.079057544","3.5348135273092653","0.0"
"362021cb-71a4-415c-8d22-c46085187d8c","5","1768024995977","1.4940001","7.734","-1.5970501","0.056925","0.1722875","0.7605125","2.714447498321533","0.25842952728271484","-2.249421176910401","15.3277653","74.124542","0.079057544","3.5348135273092653","0.0"
"362021cb-71a4-415c-8d22-c46085187d8c","5","1768024995988","2.2410002","7.3320003","-1.9219501","0.1813625","0.269775","0.93445","3.341639995574951","0.4104999303817749","-2.6588364219665532","15.3277653","74.124542","0.079057544","4.290044192271859","0.0"
"362021cb-71a4-415c-8d22-c46085187d8c","5","1768024995999","2.2410002","7.3320003","-1.9219501","0.1813625","0.269775","0.93445","3.341639995574951","0.4104999303817749","-2.6588364219665532","15.3277653","74.124542","0.079057544","4.290044192271859","0.0"
"362021cb-71a4-415c-8d22-c46085187d8c","5","1768024996010","2.1070502","6.393","-3.6840003","0.30525","0.370425","1.1067375","3.523355007171631","2.240035057067871","-3.3718171691894536","15.3277653","74.124542","0.079057544","5.36665059286472","0.0"
"362021cb-71a4-415c-8d22-c46085187d8c","5","1768024996021","2.1070502","6.393","-3.6840003","0.30525","0.370425","1.1067375","3.523355007171631","2.240035057067871","-3.3718171691894536","15.3277653","74.124542","0.079057544","5.36665059286472","0.0"
"362021cb-71a4-415c-8d22-c46085187d8c","5","1768024996032","0.93900007","6.1639504","-4.737","0.589325","0.51919997","1.338975","2.514667510986328","3.630537986755371","-3.343870697021485","15.3277653","74.124542","0.079057544","5.539479217623518","0.0"
"362021cb-71a4-415c-8d22-c46085187d8c","5","1768024996042","0.93900007","6.1639504","-4.737","0.589325","0.51919997","1.338975","2.514667510986328","3.630537986755371","-3.343870697021485","15.3277653","74.124542","0.079057544","5.539479217623518","0.0"
"362021cb-71a4-415c-8d22-c46085187d8c","5","1768024996053","-1.79805","8.17395","-2.8990502","1.0291874","0.5971625","1.4474624","-0.9121096730232239","2.4503355026245117","-1.347444114685059","15.3277653","74.124542","0.079057544","2.9413761699660337","0.0"
"362021cb-71a4-415c-8d22-c46085187d8c","5","1768024996064","-1.79805","8.17395","-2.8990502","1.0291874","0.5971625","1.4474624","-0.9121096730232239","2.4503355026245117","-1.347444114685059","15.3277653","74.124542","0.079057544","2.9413761699660337","0.0"
"362021cb-71a4-415c-8d22-c46085187d8c","5","1768024996076","-1.79805","8.17395","-2.8990502","1.0291874","0.5971625","1.4474624","-0.9121096730232239","2.4503355026245117","-1.347444114685059","15.3277653","74.124542","0.079057544","2.9413761699660337","0.0"
"362021cb-71a4-415c-8d22-c46085187d8c","5","1768024996087","-1.26195","10.2619505","-1.1560501","1.13245","0.4379375","1.030975","-1.2906746864318848","0.24308836460113525","0.5104507827758784","15.3277653","74.124542","0.079057544","1.4090752644330273","0.0"
"362021cb-71a4-415c-8d22-c46085187d8c","5","1768024996098","-1.26195","10.2619505","-1.1560501","1.13245","0.4379375","1.030975","-1.2906746864318848","0.24308836460113525","0.5104507827758784","15.3277653","74.124542","0.079057544","1.4090752644330273","0.0"
"362021cb-71a4-415c-8d22-c46085187d8c","5","1768024996109","0.384","10.798051","-0.42900002","0.9361","0.3366","0.7577625","-0.2552550733089447","-1.1614826917648315","0.9378008270263667","15.3277653","74.124542","0.079057544","1.5144859150518934","0.0"
"362021cb-71a4-415c-8d22-c46085187d8c","5","1768024996120","0.384","10.798051","-0.42900002","0.9361","0.3366","0.7577625","-0.2552550733089447","-1.1614826917648315","0.9378008270263667","15.3277653","74.124542","0.079057544","1.5144859150518934","0.0"
"362021cb-71a4-415c-8d22-c46085187d8c","5","1768024996130","0.59400004","9.76395","-0.29505002","0.6661875","0.206525","0.4037","-0.24315260350704193","-1.3235775232315063","-0.11651664733886768","15.3277653","74.124542","0.079057544","1.3507615547175569","0.0"
"362021cb-71a4-415c-8d22-c46085187d8c","5","1768024996141","0.59400004","9.76395","-0.29505002","0.6661875","0.206525","0.4037","-0.24315260350704193","-1.3235775232315063","-0.11651664733886768","15.3277653","74.124542","0.079057544","1.3507615547175569","0.0"
"362021cb-71a4-415c-8d22-c46085187d8c","5","1768024996152","0.0010500001","9.45705","-0.735","0.4236375","0.075625","0.0045375","-0.7823103070259094","-0.8005656599998474","-0.3907046890258794","15.3277653","74.124542","0.079057544","1.1855652434500485","0.0"
"362021cb-71a4-415c-8d22-c46085187d8c","5","1768024996163","0.0010500001","9.45705","-0.735","0.4236375","0.075625","0.0045375","-0.7823103070259094","-0.8005656599998474","-0.3907046890258794","15.3277653","74.124542","0.079057544","1.1855652434500485","0.0"
"362021cb-71a4-415c-8d22-c46085187d8c","5","1768024996174","0.99705005","9.61095","-0.86895007","0.3157","0.0584375","-0.078925","0.18432970345020294","-1.0147008895874023","-0.16344982147216847","15.3277653","74.124542","0.079057544","1.0441796679895607","0.0"
"362021cb-71a4-415c-8d22-c46085187d8c","5","1768024996185","0.99705005","9.61095","-0.86895007","0.3157","0.0584375","-0.078925","0.18432970345020294","-1.0147008895874023","-0.16344982147216847","15.3277653","74.124542","0.079057544","1.0441796679895607","0.0"
"362021cb-71a4-415c-8d22-c46085187d8c","5","1768024996196","0.99705005","9.61095","-0.86895007","0.3157","0.0584375","-0.078925","0.18432970345020294","-1.0147008895874023","-0.16344982147216847","15.3277653","74.124542","0.079057544","1.0441796679895607","0.0"
"362021cb-71a4-415c-8d22-c46085187d8c","5","1768024996207","2.739","9.1699505","-0.333","0.125675","0.087175","-0.033275","1.7393840551376343","-1.9254486560821533","-0.592180786132813","15.3277653","74.124542","0.079057544","2.6614822001923075","0.0"
"362021cb-71a4-415c-8d22-c46085187d8c","5","1768024996218","2.739","9.1699505","-0.333","0.125675","0.087175","-0.033275","1.7393840551376343","-1.9254486560821533","-0.592180786132813","15.3277653","74.124542","0.079057544","2.6614822001923075","0.0"
"362021cb-71a4-415c-8d22-c46085187d8c","5","1768024996229","1.60905","9.591001","-0.77295005","-0.0265375","0.074525","-0.018424999","0.6368824243545532","-1.2561532258987427","-0.15648990631103565","15.3277653","74.124542","0.079057544","1.4170494840212136","0.0"
"362021cb-71a4-415c-8d22-c46085187d8c","5","1768024996239","1.60905","9.591001","-0.77295005","-0.0265375","0.074525","-0.018424999","0.6368824243545532","-1.2561532258987427","-0.15648990631103565","15.3277653","74.124542","0.079057544","1.4170494840212136","0.0"
"362021cb-71a4-415c-8d22-c46085187d8c","5","1768024996250","-0.075","9.285001","0.126","-0.1705","0.0638","0.0067375","-1.14654541015625","-1.6042723655700684","-0.735613403320313","15.3277653","74.124542","0.079057544","2.104610006539606","0.0"
"362021cb-71a4-415c-8d22-c46085187d8c","5","1768024996261","-0.075","9.285001","0.126","-0.1705","0.0638","0.0067375","-1.14654541015625","-1.6042723655700684","-0.735613403320313","15.3277653","74.124542","0.079057544","2.104610006539606","0.0"
"362021cb-71a4-415c-8d22-c46085187d8c","5","1768024996272","-0.53400004","9.97395","-0.14205001","-0.5654","-0.0543125","-0.0831875","-1.538472056388855","-1.261705756187439","-0.02091365814209034","15.3277653","74.124542","0.079057544","1.9897826676757322","0.0"
"362021cb-71a4-415c-8d22-c46085187d8c","5","1768024996283","-0.53400004","9.97395","-0.14205001","-0.5654","-0.0543125","-0.0831875","-1.538472056388855","-1.261705756187439","-0.02091365814209034","15.3277653","74.124542","0.079057544","1.9897826676757322","0.0"
"362021cb-71a4-415c-8d22-c46085187d8c","5","1768024996294","0.59400004","10.032001","-0.79305005","-0.89608747","-0.2242625","-0.2448875","-0.22650259733200073","-0.7862154245376587","0.23755496978759716","15.3277653","74.124542","0.079057544","0.8519803307881347","0.0"
"362021cb-71a4-415c-8d22-c46085187d8c","5","1768024996305","0.59400004","10.032001","-0.79305005","-0.89608747","-0.2242625","-0.2448875","-0.22650259733200073","-0.7862154245376587","0.23755496978759716","15.3277653","74.124542","0.079057544","0.8519803307881347","0.0"
"362021cb-71a4-415c-8d22-c46085187d8c","5","1768024996316","0.59400004","10.032001","-0.79305005","-0.89608747","-0.2242625","-0.2448875","-0.22650259733200073","-0.7862154245376587","0.23755496978759716","15.3277653","74.124542","0.079057544","0.8519803307881347","0.0"
"362021cb-71a4-415c-8d22-c46085187d8c","5","1768024996327","1.0159501","9.45705","-1.7119501","-0.9856","-0.275","-0.1486375","0.5514471530914307","0.247672438621521","-0.16462284088134815","15.3277653","74.124542","0.079057544","0.6265271576278402","0.0"
"362021cb-71a4-415c-8d22-c46085187d8c","5","1768024996338","1.0159501","9.45705","-1.7119501","-0.9856","-0.275","-0.1486375","0.5514471530914307","0.247672438621521","-0.16462284088134815","15.3277653","74.124542","0.079057544","0.6265271576278402","0.0"
"362021cb-71a4-415c-8d22-c46085187d8c","5","1768024996348","0.26895002","9.09405","-1.9990501","-0.8273375","-0.251625","-0.02255","0.03304237127304077","0.9381986260414124","-0.5423684692382817","15.3277653","74.124542","0.079057544","1.0841918726079882","0.0"
"362021cb-71a4-415c-8d22-c46085187d8c","5","1768024996359","0.26895002","9.09405","-1.9990501","-0.8273375","-0.251625","-0.02255","0.03304237127304077","0.9381986260414124","-0.5423684692382817","15.3277653","74.124542","0.079057544","1.0841918726079882","0.0"
"362021cb-71a4-415c-8d22-c46085187d8c","5","1768024996370","-0.36195","9.438001","-0.83100003","-0.6257625","-0.20955","0.1659625","-0.8318937420845032","0.13162362575531006","-0.3660579299926763","15.3277653","74.124542","0.079057544","0.918351994110567","0.0"
"362021cb-71a4-415c-8d22-c46085187d8c","5","1768024996381","-0.36195","9.438001","-0.83100003","-0.6257625","-0.20955","0.1659625","-0.8318937420845032","0.13162362575531006","-0.3660579299926763","15.3277653","74.124542","0.079057544","0.918351994110567","0.0"
"362021cb-71a4-415c-8d22-c46085187d8c","5","1768024996392","-0.53400004","9.783","0.14505","-0.4197875","-0.2990625","0.1408","-1.2266876697540283","-0.6092140674591064","-0.10755783081054737","15.3277653","74.124542","0.079057544","1.373853378670849","0.0"
"362021cb-71a4-415c-8d22-c46085187d8c","5","1768024996403","-0.53400004","9.783","0.14505","-0.4197875","-0.2990625","0.1408","-1.2266876697540283","-0.6092140674591064","-0.10755783081054737","15.3277653","74.124542","0.079057544","1.373853378670849","0.0"
"362021cb-71a4-415c-8d22-c46085187d8c","5","1768024996414","-0.63000005","10.20405","0.33600003","-0.3174875","-0.3653375","0.1040875","-1.3602606058120728","-0.658697247505188","0.3067325973510737","15.3277653","74.124542","0.079057544","1.5421659657354891","0.0"
"362021cb-71a4-415c-8d22-c46085187d8c","5","1768024996425","-0.63000005","10.20405","0.33600003","-0.3174875","-0.3653375","0.1040875","-1.3602606058120728","-0.658697247505188","0.3067325973510737","15.3277653","74.124542","0.079057544","1.5421659657354891","0.0"
"362021cb-71a4-415c-8d22-c46085187d8c","5","1768024996436","-0.63000005","10.20405","0.33600003","-0.3174875","-0.3653375","0.1040875","-1.3602606058120728","-0.658697247505188","0.3067325973510737","15.3277653","74.124542","0.079057544","1.5421659657354891","0.0"
"362021cb-71a4-415c-8d22-c46085187d8c","5","1768024996447","-0.24705002","10.530001","-0.12195001","-0.2875125","-0.4514125","-0.0298375","-0.8587503433227539","-0.25754302740097046","0.6853823089599604","15.3277653","74.124542","0.079057544","1.1285076307030855","0.0"
"362021cb-71a4-415c-8d22-c46085187d8c","5","1768024996458","-0.24705002","10.530001","-0.12195001","-0.2875125","-0.4514125","-0.0298375","-0.8587503433227539","-0.25754302740097046","0.6853823089599604","15.3277653","74.124542","0.079057544","1.1285076307030855","0.0"
"362021cb-71a4-415c-8d22-c46085187d8c","5","1768024996469","0.17295001","10.587001","0.030000001","-0.2440625","-0.5251125","-0.2838","-0.47129103541374207","-0.4619712829589844","0.7578691864013667","15.3277653","74.124542","0.079057544","1.0049370179453023","0.0"
"362021cb-71a4-415c-8d22-c46085187d8c","5","1768024996479","0.17295001","10.587001","0.030000001","-0.2440625","-0.5251125","-0.2838","-0.47129103541374207","-0.4619712829589844","0.7578691864013667","15.3277653","74.124542","0.079057544","1.0049370179453023","0.0"
"362021cb-71a4-415c-8d22-c46085187d8c","5","1768024996490","-0.094050005","10.281","0.94905007","-0.2572625","-0.5385875","-0.3999875","-0.9059121608734131","-1.1811949014663696","0.4072679901123042","15.3277653","74.124542","0.079057544","1.5432969429888077","0.0"
"362021cb-71a4-415c-8d22-c46085187d8c","5","1768024996501","-0.094050005","10.281","0.94905007","-0.2572625","-0.5385875","-0.3999875","-0.9059121608734131","-1.1811949014663696","0.4072679901123042","15.3277653","74.124542","0.079057544","1.5432969429888077","0.0"
"362021cb-71a4-415c-8d22-c46085187d8c","5","1768024996512","-0.78300005","9.97395","1.04505","-0.3245","-0.4741","-0.3243625","-1.4317806959152222","-0.9678819179534912","0.09949726104736278","15.3277653","74.124542","0.079057544","1.731095339157475","0.0"
"362021cb-71a4-415c-8d22-c46085187d8c","5","1768024996523","-0.78300005","9.97395","1.04505","-0.3245","-0.4741","-0.3243625","-1.4317806959152222","-0.9678819179534912","0.09949726104736278","15.3277653","74.124542","0.079057544","1.731095339157475","0.0"
"362021cb-71a4-415c-8d22-c46085187d8c","5","1768024996533","-1.2049501","10.375951","0.33600003","-0.36795","-0.4277625","-0.2728","-1.455072045326233","-0.09808677434921265","0.5388330841064448","15.3277653","74.124542","0.079057544","1.554733663660681","0.0"
"362021cb-71a4-415c-8d22-c46085187d8c","5","1768024996544","-1.2049501","10.375951","0.33600003","-0.36795","-0.4277625","-0.2728","-1.455072045326233","-0.09808677434921265","0.5388330841064448","15.3277653","74.124542","0.079057544","1.554733663660681","0.0"
"362021cb-71a4-415c-8d22-c46085187d8c","5","1768024996555","-1.2049501","10.375951","0.33600003","-0.36795","-0.4277625","-0.2728","-1.455072045326233","-0.09808677434921265","0.5388330841064448","15.3277653","74.124542","0.079057544","1.554733663660681","0.0"
"362021cb-71a4-415c-8d22-c46085187d8c","5","1768024996566","-0.99405","10.54905","0.06795","-0.4082375","-0.389675","-0.3020875","-1.0430477857589722","0.14433714747428894","0.7335495376586909","15.3277653","74.124542","0.079057544","1.2833069857664565","0.0"
"362021cb-71a4-415c-8d22-c46085187d8c","5","1768024996577","-0.99405","10.54905","0.06795","-0.4082375","-0.389675","-0.3020875","-1.0430477857589722","0.14433714747428894","0.7335495376586909","15.3277653","74.124542","0.079057544","1.2833069857664565","0.0"
"362021cb-71a4-415c-8d22-c46085187d8c","5","1768024996587","-0.63000005","10.64505","0.58500004","-0.4472875","-0.3872","-0.406175","-0.7706872820854187","-0.3933781385421753","0.8346018218994136","15.3277653","74.124542","0.079057544","1.2021919346630707","0.0"
"362021cb-71a4-415c-8d22-c46085187d8c","5","1768024996598","-0.63000005","10.64505","0.58500004","-0.4472875","-0.3872","-0.406175","-0.7706872820854187","-0.3933781385421753","0.8346018218994136","15.3277653","74.124542","0.079057544","1.2021919346630707","0.0"
"362021cb-71a4-415c-8d22-c46085187d8c","5","1768024996609","-0.53400004","10.56795","1.0830001","-0.53075","-0.3752375","-0.459525","-0.7216466665267944","-0.8065757751464844","0.7715076828002925","15.3277653","74.124542","0.079057544","1.329120948966746","0.0"
"362021cb-71a4-415c-8d22-c46085187d8c","5","1768024996620","-0.53400004","10.56795","1.0830001","-0.53075","-0.3752375","-0.459525","-0.7216466665267944","-0.8065757751464844","0.7715076828002925","15.3277653","74.124542","0.079057544","1.329120948966746","0.0"
"362021cb-71a4-415c-8d22-c46085187d8c","5","1768024996630","0.135","10.05105","1.2940501","-0.599775","-0.308825","-0.38445","-0.04479748010635376","-1.1556329727172852","0.258710327148437","15.3277653","74.124542","0.079057544","1.1850845603704911","0.0"
"362021cb-71a4-415c-8d22-c46085187d8c","5","1768024996641","0.135","10.05105","1.2940501","-0.599775","-0.308825","-0.38445","-0.04479748010635376","-1.1556329727172852","0.258710327148437","15.3277653","74.124542","0.079057544","1.1850845603704911","0.0"
"362021cb-71a4-415c-8d22-c46085187d8c","5","1768024996652","0.135","10.05105","1.2940501","-0.599775","-0.308825","-0.38445","-0.04479748010635376","-1.1556329727172852","0.258710327148437","15.3277653","74.124542","0.079057544","1.1850845603704911","0.0"
"362021cb-71a4-415c-8d22-c46085187d8c","5","1768024996663","0.80505","8.95905","1.179","-0.60665","-0.2448875","-0.2993375","0.681572437286377","-1.2058475017547607","-0.8442788696289067","15.3277653","74.124542","0.079057544","1.6221639850701144","0.0"
"362021cb-71a4-415c-8d22-c46085187d8c","5","1768024996673","0.80505","8.95905","1.179","-0.60665","-0.2448875","-0.2993375","0.681572437286377","-1.2058475017547607","-0.8442788696289067","15.3277653","74.124542","0.079057544","1.6221639850701144","0.0"
"362021cb-71a4-415c-8d22-c46085187d8c","5","1768024996684","0.384","8.883","0.75705004","-0.553025","-0.1464375","-0.1651375","0.5548169612884521","-0.5538076162338257","-0.9210305786132817","15.3277653","74.124542","0.079057544","1.2094718116073069","0.0"
"362021cb-71a4-415c-8d22-c46085187d8c","5","1768024996695","0.384","8.883","0.75705004","-0.553025","-0.1464375","-0.1651375","0.5548169612884521","-0.5538076162338257","-0.9210305786132817","15.3277653","74.124542","0.079057544","1.2094718116073069","0.0"
"362021cb-71a4-415c-8d22-c46085187d8c","5","1768024996706","-0.22800002","9.514951","0.10605001","-0.5104","-0.086075","-0.0298375","0.3604556918144226","0.40636369585990906","-0.3072391128540044","15.3277653","74.124542","0.079057544","0.6240638040630576","0.0"
"362021cb-71a4-415c-8d22-c46085187d8c","5","1768024996717","-0.22800002","9.514951","0.10605001","-0.5104","-0.086075","-0.0298375","0.3604556918144226","0.40636369585990906","-0.3072391128540044","15.3277653","74.124542","0.079057544","0.6240638040630576","0.0"
"362021cb-71a4-415c-8d22-c46085187d8c","5","1768024996727","-1.2240001","9.63","0.48900002","-0.4459125","-0.0463375","0.011","-0.6293153762817383","0.5474741458892822","-0.1260724639892583","15.3277653","74.124542","0.079057544","0.8435994602998201","0.0"
"362021cb-71a4-415c-8d22-c46085187d8c","5","1768024996738","-1.2240001","9.63","0.48900002","-0.4459125","-0.0463375","0.011","-0.6293153762817383","0.5474741458892822","-0.1260724639892583","15.3277653","74.124542","0.079057544","0.8435994602998201","0.0"
"362021cb-71a4-415c-8d22-c46085187d8c","5","1768024996749","-1.6830001","9.84","1.35105","-0.33385","1.375E-4","-0.033275","-1.278825044631958","0.038472890853881836","0.182324829101562","15.3277653","74.124542","0.079057544","1.2923296798477926","0.0"
"362021cb-71a4-415c-8d22-c46085187d8c","5","1768024996760","-1.6830001","9.84","1.35105","-0.33385","1.375E-4","-0.033275","-1.278825044631958","0.038472890853881836","0.182324829101562","15.3277653","74.124542","0.079057544","1.2923296798477926","0.0"
"362021cb-71a4-415c-8d22-c46085187d8c","5","1768024996771","-1.6830001","9.84","1.35105","-0.33385","1.375E-4","-0.033275","-1.278825044631958","0.038472890853881836","0.182324829101562","15.3277653","74.124542","0.079057544","1.2923296798477926","0.0"
"362021cb-71a4-415c-8d22-c46085187d8c","5","1768024996781","-1.31895","10.222951","2.5570502","-0.2728","0.0246125","-0.0719125","-1.3182306289672852","-1.1034412384033203","0.6700558090209956","15.3277653","74.124542","0.079057544","1.8450716368096167","0.0"
"362021cb-71a4-415c-8d22-c46085187d8c","5","1768024996792","-1.31895","10.222951","2.5570502","-0.2728","0.0246125","-0.0719125","-1.3182306289672852","-1.1034412384033203","0.6700558090209956","15.3277653","74.124542","0.079057544","1.8450716368096167","0.0"
"362021cb-71a4-415c-8d22-c46085187d8c","5","1768024996803","-1.31895","10.222951","2.5570502","-0.2728","0.0246125","-0.0719125","-1.3182306289672852","-1.1034412384033203","0.6700558090209956","15.3277653","74.124542","0.079057544","1.8450716368096167","0.0"
"362021cb-71a4-415c-8d22-c46085187d8c","5","1768024996814","-0.45795003","10.06995","2.21295","-0.2432375","0.0303875","-0.1353","-0.3496633768081665","-1.0736831426620483","0.44844573974609325","15.3277653","74.124542","0.079057544","1.2149747114298153","0.0"
"362021cb-71a4-415c-8d22-c46085187d8c","5","1768024996825","-0.43905002","9.055051","1.332","-0.408375","0.0378125","-0.0834625","-0.028768181800842285","-0.3015816807746887","-0.6519876098632817","15.3277653","74.124542","0.079057544","0.7189346019480822","0.0"
"362021cb-71a4-415c-8d22-c46085187d8c","5","1768024996836","-0.43905002","9.055051","1.332","-0.408375","0.0378125","-0.0834625","-0.028768181800842285","-0.3015816807746887","-0.6519876098632817","15.3277653","74.124542","0.079057544","0.7189346019480822","0.0"
"362021cb-71a4-415c-8d22-c46085187d8c","5","1768024996847","-0.85995007","9.073951","0.20205002","-0.508475","0.0435875","-0.054725","0.0765439122915268","0.9678907990455627","-0.7449985122680669","15.3277653","74.124542","0.079057544","1.2238032328228194","0.0"
"362021cb-71a4-415c-8d22-c46085187d8c","5","1768024996858","-0.85995007","9.073951","0.20205002","-0.508475","0.0435875","-0.054725","0.0765439122915268","0.9678907990455627","-0.7449985122680669","15.3277653","74.124542","0.079057544","1.2238032328228194","0.0"
"362021cb-71a4-415c-8d22-c46085187d8c","5","1768024996869","-1.31895","9.61095","-0.027","-0.367125","0.089375","-0.0433125","-0.1427651196718216","1.4681826829910278","-0.22173553466796925","15.3277653","74.124542","0.079057544","1.491679897754251","0.0"
"362021cb-71a4-415c-8d22-c46085187d8c","6","1768024996880","-1.31895","9.61095","-0.027","-0.367125","0.089375","-0.0433125","-0.1427651196718216","1.4681826829910278","-0.22173553466796925","15.3277649","74.1245405","0.027283072","1.491679897754251","0.0"
"362021cb-71a4-415c-8d22-c46085187d8c","6","1768024996891","-1.31895","9.61095","-0.027","-0.367125","0.089375","-0.0433125","-0.1427651196718216","1.4681826829910278","-0.22173553466796925","15.3277649","74.1245405","0.027283072","1.491679897754251","0.0"
"362021cb-71a4-415c-8d22-c46085187d8c","6","1768024996902","-1.0320001","9.724951","0.45105","-0.278025","0.104225","-0.0510125","-1.6190111637115479E-4","0.9474081993103027","-0.0659976577758794","15.3277649","74.1245405","0.027283072","0.949704171394579","0.0"
