"session_id","window_id","timestamp","accel_x","accel_y","accel_z","gyro_x","gyro_y","gyro_z","linear_accel_x","linear_accel_y","linear_accel_z","latitude","longitude","speed","vibration_intensity","anomaly_score"
"e15c8139-a7be-4d15-8161-03af0fa56f89","1","1768025037785","-0.55305004","7.293","4.85505","-0.0462","0.0727375","-0.15853749","-1.689098834991455","-4.437282085418701","-2.426050243377686","15.3277492","74.124572","0.096519776","5.331814603241579","0.0"
"e15c8139-a7be-4d15-8161-03af0fa56f89","1","1768025037796","-0.55305004","7.293","4.85505","-0.0462","0.0727375","-0.15853749","-1.689098834991455","-4.437282085418701","-2.426050243377686","15.3277492","74.124572","0.096519776","5.331814603241579","0.0"
"e15c8139-a7be-4d15-8161-03af0fa56f89","1","1768025037806","-0.55305004","7.293","4.85505","-0.0462","0.0727375","-0.15853749","-1.689098834991455","-4.437282085418701","-2.426050243377686","15.3277492","74.124572","0.096519776","5.331814603241579","0.0"
"e15c8139-a7be-4d15-8161-03af0fa56f89","1","1768025037817","-1.0699501","7.90605","6.1000504","-0.0334125","0.058849998","-0.121825","0.5658488273620605","-0.5038169622421265","0.2043413543701167","15.3277492","74.124572","0.096519776","0.7847112946655711","0.0"
"e15c8139-a7be-4d15-8161-03af0fa56f89","1","1768025037828","-1.281","8.442","6.3679504","0.02585","0.0551375","-0.1043625","0.439359188079834","-0.5843008756637573","0.816602172851562","15.3277492","74.124572","0.096519776","1.0960306191696914","0.0"
"e15c8139-a7be-4d15-8161-03af0fa56f89","1","1768025037838","-1.281","8.442","6.3679504","0.02585","0.0551375","-0.1043625","0.439359188079834","-0.5843008756637573","0.816602172851562","15.3277492","74.124572","0.096519776","1.0960306191696914","0.0"
"e15c8139-a7be-4d15-8161-03af0fa56f89","1","1768025037849","-0.91695005","8.385","6.40605","0.0385","0.0559625","-0.0891","0.6624808311462402","-0.2569425106048584","0.757952156066894","15.3277492","74.124572","0.096519776","1.0389378115549526","0.0"
"e15c8139-a7be-4d15-8161-03af0fa56f89","1","1768025037859","-0.91695005","8.385","6.40605","0.0385","0.0559625","-0.0891","0.6624808311462402","-0.2569425106048584","0.757952156066894","15.3277492","74.124572","0.096519776","1.0389378115549526","0.0"
"e15c8139-a7be-4d15-8161-03af0fa56f89","1","1768025037870","-0.34305","8.00205","6.675","0.031075","0.074525","-0.04455","1.3052875995635986","0.09036564826965332","0.5337986373901362","15.3277492","74.124572","0.096519776","1.4131109840494702","0.0"
"e15c8139-a7be-4d15-8161-03af0fa56f89","1","1768025037881","-0.34305","8.00205","6.675","0.031075","0.074525","-0.04455","1.3052875995635986","0.09036564826965332","0.5337986373901362","15.3277492","74.124572","0.096519776","1.4131109840494702","0.0"
"e15c8139-a7be-4d15-8161-03af0fa56f89","1","1768025037892","-0.15105","7.6000504","6.7510505","0.029424999","0.104637496","0.0372625","1.6421802043914795","0.1371241807937622","0.22218364715576122","15.3277492","74.124572","0.096519776","1.662806193672924","0.0"
"e15c8139-a7be-4d15-8161-03af0fa56f89","1","1768025037902","-0.15105","7.6000504","6.7510505","0.029424999","0.104637496","0.0372625","1.6421802043914795","0.1371241807937622","0.22218364715576122","15.3277492","74.124572","0.096519776","1.662806193672924","0.0"
"e15c8139-a7be-4d15-8161-03af0fa56f89","1","1768025037913","-0.15105","7.6000504","6.7510505","0.029424999","0.104637496","0.0372625","1.6421802043914795","0.1371241807937622","0.22218364715576122","15.3277492","74.124572","0.096519776","1.662806193672924","0.0"
"e15c8139-a7be-4d15-8161-03af0fa56f89","1","1768025037923","0.039","7.2169504","6.5790005","-0.003575","0.0694375","0.1749","1.7603704929351807","0.2509218454360962","-0.2075381851196294","15.3277492","74.124572","0.096519776","1.7902341029029294","0.0"
"e15c8139-a7be-4d15-8161-03af0fa56f89","1","1768025037934","0.039","7.2169504","6.5790005","-0.003575","0.0694375","0.1749","1.7603704929351807","0.2509218454360962","-0.2075381851196294","15.3277492","74.124572","0.096519776","1.7902341029029294","0.0"
"e15c8139-a7be-4d15-8161-03af0fa56f89","1","1768025037945","0.058050003","7.12095","6.1770005","-0.033","0.0078375","0.3364625","1.4805529117584229","0.338486909866333","-0.5062356567382817","15.3277492","74.124572","0.096519776","1.6009012626706378","0.0"
"e15c8139-a7be-4d15-8161-03af0fa56f89","1","1768025037955","0.058050003","7.12095","6.1770005","-0.033","0.0078375","0.3364625","1.4805529117584229","0.338486909866333","-0.5062356567382817","15.3277492","74.124572","0.096519776","1.6009012626706378","0.0"
"e15c8139-a7be-4d15-8161-03af0fa56f89","1","1768025037966","-0.036000002","7.1400003","6.0430503","-0.0609125","-0.0386375","0.469975","1.2921926975250244","0.24759244918823242","-0.5488820648193364","15.3277492","74.124572","0.096519776","1.4256000524383987","0.0"
"e15c8139-a7be-4d15-8161-03af0fa56f89","1","1768025037977","-0.036000002","7.1400003","6.0430503","-0.0609125","-0.0386375","0.469975","1.2921926975250244","0.24759244918823242","-0.5488820648193364","15.3277492","74.124572","0.096519776","1.4256000524383987","0.0"
"e15c8139-a7be-4d15-8161-03af0fa56f89","1","1768025037989","-0.53400004","7.2739506","5.94705","-0.1021625","-0.0523875","0.5182375","0.9039034843444824","-0.21654367446899414","-0.4452252960205083","15.3277492","74.124572","0.096519776","1.0306106132672896","0.0"
"e15c8139-a7be-4d15-8161-03af0fa56f89","1","1768025038000","-0.53400004","7.2739506","5.94705","-0.1021625","-0.0523875","0.5182375","0.9039034843444824","-0.21654367446899414","-0.4452252960205083","15.3277492","74.124572","0.096519776","1.0306106132672896","0.0"
"e15c8139-a7be-4d15-8161-03af0fa56f89","1","1768025038011","-0.53400004","7.2739506","5.94705","-0.1021625","-0.0523875","0.5182375","0.9039034843444824","-0.21654367446899414","-0.4452252960205083","15.3277492","74.124572","0.096519776","1.0306106132672896","0.0"
"e15c8139-a7be-4d15-8161-03af0fa56f89","1","1768025038022","-0.93600005","7.56195","6.0040503","-0.1101375","-0.029975","0.4989875","0.586115837097168","-0.6025813817977905","-0.1455722427368169","15.3277492","74.124572","0.096519776","0.8531279939381167","0.0"
"e15c8139-a7be-4d15-8161-03af0fa56f89","1","1768025038033","-0.93600005","7.56195","6.0040503","-0.1101375","-0.029975","0.4989875","0.586115837097168","-0.6025813817977905","-0.1455722427368169","15.3277492","74.124572","0.096519776","0.8531279939381167","0.0"
"e15c8139-a7be-4d15-8161-03af0fa56f89","1","1768025038044","-1.14705","7.6189504","5.94705","-0.125125","0.0177375","0.4389","0.3683586120605469","-0.8282326459884644","-0.11928897857666065","15.3277492","74.124572","0.096519776","0.9142686932024351","0.0"
"e15c8139-a7be-4d15-8161-03af0fa56f89","1","1768025038055","-1.14705","7.6189504","5.94705","-0.125125","0.0177375","0.4389","0.3683586120605469","-0.8282326459884644","-0.11928897857666065","15.3277492","74.124572","0.096519776","0.9142686932024351","0.0"
"e15c8139-a7be-4d15-8161-03af0fa56f89","1","1768025038066","-1.33905","8.00205","4.64505","-0.1524875","0.06435","0.3909125","-0.9539134502410889","-0.5934770107269287","-0.5288253402709966","15.3277492","74.124572","0.096519776","1.2417012818407513","0.0"
"e15c8139-a7be-4d15-8161-03af0fa56f89","1","1768025038077","-1.33905","8.00205","4.64505","-0.1524875","0.06435","0.3909125","-0.9539134502410889","-0.5934770107269287","-0.5288253402709966","15.3277492","74.124572","0.096519776","1.2417012818407513","0.0"
"e15c8139-a7be-4d15-8161-03af0fa56f89","1","1768025038088","-1.8360001","8.2890005","5.3149505","-0.0726","0.093637496","0.3146","-0.803011417388916","-1.2208384275436401","0.09918064117431591","15.3277492","74.124572","0.096519776","1.4646196100721622","0.0"
"e15c8139-a7be-4d15-8161-03af0fa56f89","1","1768025038099","-1.8360001","8.2890005","5.3149505","-0.0726","0.093637496","0.3146","-0.803011417388916","-1.2208384275436401","0.09918064117431591","15.3277492","74.124572","0.096519776","1.4646196100721622","0.0"
"e15c8139-a7be-4d15-8161-03af0fa56f89","1","1768025038110","-1.5300001","8.80605","6.06195","-0.0433125","0.11055","0.25959998","-0.39969539642333984","-1.0627493858337402","0.9299005889892573","15.3277492","74.124572","0.096519776","1.4676197642490956","0.0"
"e15c8139-a7be-4d15-8161-03af0fa56f89","1","1768025038121","-1.5300001","8.80605","6.06195","-0.0433125","0.11055","0.25959998","-0.39969539642333984","-1.0627493858337402","0.9299005889892573","15.3277492","74.124572","0.096519776","1.4676197642490956","0.0"
"e15c8139-a7be-4d15-8161-03af0fa56f89","1","1768025038132","-1.5300001","8.80605","6.06195","-0.0433125","0.11055","0.25959998","-0.39969539642333984","-1.0627493858337402","0.9299005889892573","15.3277492","74.124572","0.096519776","1.4676197642490956","0.0"
"e15c8139-a7be-4d15-8161-03af0fa56f89","1","1768025038143","-1.8750001","8.998051","5.35305","0.1271875","0.155925","0.106837496","-1.1818962097167969","-1.171887993812561","0.6954988861083979","15.3277492","74.124572","0.096519776","1.8038621957242138","0.0"
"e15c8139-a7be-4d15-8161-03af0fa56f89","1","1768025038154","-1.8750001","8.998051","5.35305","0.1271875","0.155925","0.106837496","-1.1818962097167969","-1.171887993812561","0.6954988861083979","15.3277492","74.124572","0.096519776","1.8038621957242138","0.0"
"e15c8139-a7be-4d15-8161-03af0fa56f89","1","1768025038165","-1.3960501","8.347051","4.49205","0.194975","0.22605","-0.025575","-1.2906303405761719","-0.6409320831298828","-0.3377137756347661","15.3277492","74.124572","0.096519776","1.4800578385503946","0.0"
"e15c8139-a7be-4d15-8161-03af0fa56f89","1","1768025038176","-1.3960501","8.347051","4.49205","0.194975","0.22605","-0.025575","-1.2906303405761719","-0.6409320831298828","-0.3377137756347661","15.3277492","74.124572","0.096519776","1.4800578385503946","0.0"
"e15c8139-a7be-4d15-8161-03af0fa56f89","1","1768025038187","-1.434","8.404051","3.85995","0.3201","0.2850375","-0.1318625","-1.7515745162963867","-0.47893381118774414","-0.6292462921142583","15.3277492","74.124572","0.096519776","1.9218069043942165","0.0"
"e15c8139-a7be-4d15-8161-03af0fa56f89","1","1768025038198","-1.434","8.404051","3.85995","0.3201","0.2850375","-0.1318625","-1.7515745162963867","-0.47893381118774414","-0.6292462921142583","15.3277492","74.124572","0.096519776","1.9218069043942165","0.0"
"e15c8139-a7be-4d15-8161-03af0fa56f89","1","1768025038209","-0.95595","8.538","4.45305","0.5445","0.3339875","-0.2204125","-1.0721800327301025","-0.13067114353179932","-0.19364410400390675","15.3277492","74.124572","0.096519776","1.0973345020332257","0.0"
"e15c8139-a7be-4d15-8161-03af0fa56f89","1","1768025038220","-0.95595","8.538","4.45305","0.5445","0.3339875","-0.2204125","-1.0721800327301025","-0.13067114353179932","-0.19364410400390675","15.3277492","74.124572","0.096519776","1.0973345020332257","0.0"
"e15c8139-a7be-4d15-8161-03af0fa56f89","1","1768025038231","-0.89805007","8.7300005","4.70205","0.643775","0.3364625","-0.22825","-0.7738144397735596","-0.06133389472961426","0.11603302001953075","15.3277492","74.124572","0.096519776","0.7848657818886131","0.0"
"e15c8139-a7be-4d15-8161-03af0fa56f89","1","1768025038242","-0.89805007","8.7300005","4.70205","0.643775","0.3364625","-0.22825","-0.7738144397735596","-0.06133389472961426","0.11603302001953075","15.3277492","74.124572","0.096519776","0.7848657818886131","0.0"
"e15c8139-a7be-4d15-8161-03af0fa56f89","1","1768025038253","-1.31895","9.09405","5.0280004","0.71005","0.3069","-0.1920875","-0.6352572441101074","-0.42511165142059326","0.6369089508056636","15.3277492","74.124572","0.096519776","0.9949495936901949","0.0"
"e15c8139-a7be-4d15-8161-03af0fa56f89","1","1768025038264","-1.31895","9.09405","5.0280004","0.71005","0.3069","-0.1920875","-0.6352572441101074","-0.42511165142059326","0.6369089508056636","15.3277492","74.124572","0.096519776","0.9949495936901949","0.0"
"e15c8139-a7be-4d15-8161-03af0fa56f89","1","1768025038275","-1.31895","9.09405","5.0280004","0.71005","0.3069","-0.1920875","-0.6352572441101074","-0.42511165142059326","0.6369089508056636","15.3277492","74.124572","0.096519776","0.9949495936901949","0.0"
"e15c8139-a7be-4d15-8161-03af0fa56f89","1","1768025038286","-2.334","9.3810005","4.89405","0.7145875","0.2781625","-0.1659625","-1.0087413787841797","-1.2590795755386353","0.9044584655761714","15.3277492","74.124572","0.096519776","1.8495636411765777","0.0"
"e15c8139-a7be-4d15-8161-03af0fa56f89","1","1768025038297","-2.334","9.3810005","4.89405","0.7145875","0.2781625","-0.1659625","-1.0087413787841797","-1.2590795755386353","0.9044584655761714","15.3277492","74.124572","0.096519776","1.8495636411765777","0.0"
"e15c8139-a7be-4d15-8161-03af0fa56f89","1","1768025038308","-2.9280002","9.47595","4.3000503","0.7176125","0.260975","-0.1698125","-1.5215797424316406","-1.634320616722107","0.7669109725952143","15.3277492","74.124572","0.096519776","2.3610085198296518","0.0"
"e15c8139-a7be-4d15-8161-03af0fa56f89","1","1768025038319","-2.9280002","9.47595","4.3000503","0.7176125","0.260975","-0.1698125","-1.5215797424316406","-1.634320616722107","0.7669109725952143","15.3277492","74.124572","0.096519776","2.3610085198296518","0.0"
"e15c8139-a7be-4d15-8161-03af0fa56f89","1","1768025038329","-3.1000502","9.228001","3.6870003","0.6502375","0.2866875","-0.23567499","-1.7686119079589844","-1.6849637031555176","0.30895275115966747","15.3277492","74.124572","0.096519776","2.4622230939488405","0.0"
"e15c8139-a7be-4d15-8161-03af0fa56f89","1","1768025038340","-3.1000502","9.228001","3.6870003","0.6502375","0.2866875","-0.23567499","-1.7686119079589844","-1.6849637031555176","0.30895275115966747","15.3277492","74.124572","0.096519776","2.4622230939488405","0.0"
"e15c8139-a7be-4d15-8161-03af0fa56f89","1","1768025038351","-3.426","9.24705","3.24705","0.6282375","0.3130875","-0.2820125","-2.0453851222991943","-1.8369799852371216","0.20152610778808544","15.3277492","74.124572","0.096519776","2.7565755089975097","0.0"
"e15c8139-a7be-4d15-8161-03af0fa56f89","1","1768025038362","-3.426","9.24705","3.24705","0.6282375","0.3130875","-0.2820125","-2.0453851222991943","-1.8369799852371216","0.20152610778808544","15.3277492","74.124572","0.096519776","2.7565755089975097","0.0"
"e15c8139-a7be-4d15-8161-03af0fa56f89","1","1768025038373","-3.1189501","8.95905","3.0550501","0.721875","0.332475","-0.3949","-1.784257411956787","-1.5041402578353882","-0.12084442138671925","15.3277492","74.124572","0.096519776","2.336796054760477","0.0"
"e15c8139-a7be-4d15-8161-03af0fa56f89","1","1768025038384","-3.1189501","8.95905","3.0550501","0.721875","0.332475","-0.3949","-1.784257411956787","-1.5041402578353882","-0.12084442138671925","15.3277492","74.124572","0.096519776","2.336796054760477","0.0"
"e15c8139-a7be-4d15-8161-03af0fa56f89","1","1768025038395","-3.1189501","8.95905","3.0550501","0.721875","0.332475","-0.3949","-1.784257411956787","-1.5041402578353882","-0.12084442138671925","15.3277492","74.124572","0.096519776","2.336796054760477","0.0"
"e15c8139-a7be-4d15-8161-03af0fa56f89","1","1768025038406","-2.6220002","9.016951","2.84505","0.8028625","0.3051125","-0.4378","-1.5609526634216309","-0.8745760917663574","-0.1625562286376958","15.3277492","74.124572","0.096519776","1.7966304809841422","0.0"
"e15c8139-a7be-4d15-8161-03af0fa56f89","1","1768025038417","-2.6220002","9.016951","2.84505","0.8028625","0.3051125","-0.4378","-1.5609526634216309","-0.8745760917663574","-0.1625562286376958","15.3277492","74.124572","0.096519776","1.7966304809841422","0.0"
"e15c8139-a7be-4d15-8161-03af0fa56f89","1","1768025038428","-2.39205","9.151051","3.1699502","0.8259625","0.2684","-0.459525","-0.9941310882568359","-0.619420051574707","0.09657520294189403","15.3277492","74.124572","0.096519776","1.175289151976994","0.0"
"e15c8139-a7be-4d15-8161-03af0fa56f89","1","1768025038439","-2.39205","9.151051","3.1699502","0.8259625","0.2684","-0.459525","-0.9941310882568359","-0.619420051574707","0.09657520294189403","15.3277492","74.124572","0.096519776","1.175289151976994","0.0"
"e15c8139-a7be-4d15-8161-03af0fa56f89","1","1768025038450","-2.085","8.863951","3.0940502","0.72325","0.2154625","-0.449625","-0.6328210830688477","-0.31645750999450684","-0.2188888168334966","15.3277492","74.124572","0.096519776","0.7406214910081402","0.0"
"e15c8139-a7be-4d15-8161-03af0fa56f89","1","1768025038461","-2.085","8.863951","3.0940502","0.72325","0.2154625","-0.449625","-0.6328210830688477","-0.31645750999450684","-0.2188888168334966","15.3277492","74.124572","0.096519776","0.7406214910081402","0.0"
"e15c8139-a7be-4d15-8161-03af0fa56f89","1","1768025038472","-1.8750001","8.46195","2.7870002","0.6895625","0.1827375","-0.4527875","-0.5311989784240723","-0.09771251678466797","-0.7217727279663091","15.3277492","74.124572","0.096519776","0.901485419433448","0.0"
"e15c8139-a7be-4d15-8161-03af0fa56f89","1","1768025038483","-1.8750001","8.46195","2.7870002","0.6895625","0.1827375","-0.4527875","-0.5311989784240723","-0.09771251678466797","-0.7217727279663091","15.3277492","74.124572","0.096519776","0.901485419433448","0.0"
"e15c8139-a7be-4d15-8161-03af0fa56f89","1","1768025038494","-1.9699501","8.193001","2.328","0.69575","0.154275","-0.459525","-0.7265872955322266","-0.10045766830444336","-1.0986543273925786","15.3277492","74.124572","0.096519776","1.3210080136957687","0.0"
"e15c8139-a7be-4d15-8161-03af0fa56f89","1","1768025038505","-1.9699501","8.193001","2.328","0.69575","0.154275","-0.459525","-0.7265872955322266","-0.10045766830444336","-1.0986543273925786","15.3277492","74.124572","0.096519776","1.3210080136957687","0.0"
"e15c8139-a7be-4d15-8161-03af0fa56f89","1","1768025038516","-1.9699501","8.193001","2.328","0.69575","0.154275","-0.459525","-0.7265872955322266","-0.10045766830444336","-1.0986543273925786","15.3277492","74.124572","0.096519776","1.3210080136957687","0.0"
"e15c8139-a7be-4d15-8161-03af0fa56f89","1","1768025038527","-2.04705","8.2890005","2.46195","0.7616125","0.14739999","-0.446875","-0.48334741592407227","-0.11993712186813354","-0.9380698776245122","15.3277492","74.124572","0.096519776","1.062066256402564","0.0"
"e15c8139-a7be-4d15-8161-03af0fa56f89","1","1768025038538","-2.04705","8.2890005","2.46195","0.7616125","0.14739999","-0.446875","-0.48334741592407227","-0.11993712186813354","-0.9380698776245122","15.3277492","74.124572","0.096519776","1.062066256402564","0.0"
"e15c8139-a7be-4d15-8161-03af0fa56f89","1","1768025038549","-2.124","8.710951","3.0169501","0.821975","0.135575","-0.390775","0.09127020835876465","-0.14379173517227173","-0.35140472412109425","15.3277492","74.124572","0.096519776","0.3905017210875355","0.0"
"e15c8139-a7be-4d15-8161-03af0fa56f89","1","1768025038560","-2.124","8.710951","3.0169501","0.821975","0.135575","-0.390775","0.09127020835876465","-0.14379173517227173","-0.35140472412109425","15.3277492","74.124572","0.096519776","0.3905017210875355","0.0"
"e15c8139-a7be-4d15-8161-03af0fa56f89","1","1768025038571","-1.932","9.3810005","3.5719502","0.7051","0.14093749","-0.3025","0.7032508850097656","0.13670575618743896","0.3871254348754878","15.3277492","74.124572","0.096519776","0.8143195769286979","0.0"
"e15c8139-a7be-4d15-8161-03af0fa56f89","1","1768025038582","-1.932","9.3810005","3.5719502","0.7051","0.14093749","-0.3025","0.7032508850097656","0.13670575618743896","0.3871254348754878","15.3277492","74.124572","0.096519776","0.8143195769286979","0.0"
"e15c8139-a7be-4d15-8161-03af0fa56f89","1","1768025038593","-1.33905","9.724951","3.89805","0.579975","0.128975","-0.2058375","1.2819139957427979","0.7295955419540405","0.6488193893432612","15.3277492","74.124572","0.096519776","1.6113906253010903","0.0"
"e15c8139-a7be-4d15-8161-03af0fa56f89","1","1768025038604","-1.33905","9.724951","3.89805","0.579975","0.128975","-0.2058375","1.2819139957427979","0.7295955419540405","0.6488193893432612","15.3277492","74.124572","0.096519776","1.6113906253010903","0.0"
"e15c8139-a7be-4d15-8161-03af0fa56f89","1","1768025038614","-0.66795003","9.936001","3.7830002","0.394625","0.054449998","0.134475","1.4670021533966064","1.4370052814483643","0.642957153320312","15.3277492","74.124572","0.096519776","2.1518534796743323","0.0"
"e15c8139-a7be-4d15-8161-03af0fa56f89","1","1768025038625","-0.66795003","9.936001","3.7830002","0.394625","0.054449998","0.134475","1.4670021533966064","1.4370052814483643","0.642957153320312","15.3277492","74.124572","0.096519776","2.1518534796743323","0.0"
"e15c8139-a7be-4d15-8161-03af0fa56f89","1","1768025038636","-0.094050005","9.802051","3.5149503","0.3059375","0.013475","0.3491125","1.4675602912902832","1.9120330810546875","0.3208603286743159","15.3277492","74.124572","0.096519776","2.431574605504937","0.0"
"e15c8139-a7be-4d15-8161-03af0fa56f89","1","1768025038647","-0.094050005","9.802051","3.5149503","0.3059375","0.013475","0.3491125","1.4675602912902832","1.9120330810546875","0.3208603286743159","15.3277492","74.124572","0.096519776","2.431574605504937","0.0"
"e15c8139-a7be-4d15-8161-03af0fa56f89","1","1768025038658","-0.094050005","9.802051","3.5149503","0.3059375","0.013475","0.3491125","1.4675602912902832","1.9120330810546875","0.3208603286743159","15.3277492","74.124572","0.096519776","2.431574605504937","0.0"
"e15c8139-a7be-4d15-8161-03af0fa56f89","1","1768025038669","-0.24705002","9.514951","3.0940502","0.2003375","-0.0031625","0.51301247","1.094045877456665","1.650586724281311","5.611801147455964E-4","15.3277492","74.124572","0.096519776","1.9802457502231268","0.0"
"e15c8139-a7be-4d15-8161-03af0fa56f89","1","1768025038680","-0.24705002","9.514951","3.0940502","0.2003375","-0.0031625","0.51301247","1.094045877456665","1.650586724281311","5.611801147455964E-4","15.3277492","74.124572","0.096519776","1.9802457502231268","0.0"
"e15c8139-a7be-4d15-8161-03af0fa56f89","1","1768025038692","-0.68805003","9.361951","2.7870002","0.099","0.021724999","0.6573875","0.6743175983428955","1.0950567722320557","-0.10262924194335987","15.3277492","74.124572","0.096519776","1.2901109716408459","0.0"
"e15c8139-a7be-4d15-8161-03af0fa56f89","1","1768025038702","-0.68805003","9.361951","2.7870002","0.099","0.021724999","0.6573875","0.6743175983428955","1.0950567722320557","-0.10262924194335987","15.3277492","74.124572","0.096519776","1.2901109716408459","0.0"
"e15c8139-a7be-4d15-8161-03af0fa56f89","1","1768025038713","-0.975","9.151051","2.84505","0.0836","0.04455","0.6835125","0.6440110206604004","0.5914037823677063","-0.2171826934814458","15.3277492","74.124572","0.096519776","0.9009311576800614","0.0"
"e15c8139-a7be-4d15-8161-03af0fa56f89","1","1768025038724","-0.975","9.151051","2.84505","0.0836","0.04455","0.6835125","0.6440110206604004","0.5914037823677063","-0.2171826934814458","15.3277492","74.124572","0.096519776","0.9009311576800614","0.0"
"e15c8139-a7be-4d15-8161-03af0fa56f89","1","1768025038735","-0.95595","8.787001","2.73","0.072875","0.0831875","0.6534","0.5792158842086792","0.4013064503669739","-0.5860314941406255","15.3277492","74.124572","0.096519776","0.9164992197216953","0.0"
"e15c8139-a7be-4d15-8161-03af0fa56f89","1","1768025038746","-0.95595","8.787001","2.73","0.072875","0.0831875","0.6534","0.5792158842086792","0.4013064503669739","-0.5860314941406255","15.3277492","74.124572","0.096519776","0.9164992197216953","0.0"
"e15c8139-a7be-4d15-8161-03af0fa56f89","1","1768025038757","-1.10895","8.634001","2.2699502","0.0622875","0.0950125","0.6303","0.11489152908325195","0.19769495725631714","-0.8168845748901372","15.3277492","74.124572","0.096519776","0.8482828350692385","0.0"
"e15c8139-a7be-4d15-8161-03af0fa56f89","1","1768025038768","-1.10895","8.634001","2.2699502","0.0622875","0.0950125","0.6303","0.11489152908325195","0.19769495725631714","-0.8168845748901372","15.3277492","74.124572","0.096519776","0.8482828350692385","0.0"
"e15c8139-a7be-4d15-8161-03af0fa56f89","1","1768025038780","-1.10895","8.634001","2.2699502","0.0622875","0.0950125","0.6303","0.11489152908325195","0.19769495725631714","-0.8168845748901372","15.3277492","74.124572","0.096519776","0.8482828350692385","0.0"
"e15c8139-a7be-4d15-8161-03af0fa56f89","1","1768025038791","-1.49205","9.228001","1.7340001","0.0512875","0.1060125","0.6059625","-0.6197632551193237","-0.05926254391670227","-0.3230958557128911","15.3277492","74.124572","0.096519776","0.7014338696459022","0.0"
"e15c8139-a7be-4d15-8161-03af0fa56f89","1","1768025038802","-1.49205","9.228001","1.7340001","0.0512875","0.1060125","0.6059625","-0.6197632551193237","-0.05926254391670227","-0.3230958557128911","15.3277492","74.124572","0.096519776","0.7014338696459022","0.0"
"e15c8139-a7be-4d15-8161-03af0fa56f89","1","1768025038813","-1.49205","9.228001","1.7340001","0.0512875","0.1060125","0.6059625","-0.6197632551193237","-0.05926254391670227","-0.3230958557128911","15.3277492","74.124572","0.096519776","0.7014338696459022","0.0"
"e15c8139-a7be-4d15-8161-03af0fa56f89","1","1768025038824","-2.181","10.64505","1.8679501","0.0644875","0.1265","0.539825","-0.9536991119384766","-0.62285315990448","1.156567993164062","15.3277492","74.124572","0.096519776","1.6233106842889873","0.0"
"e15c8139-a7be-4d15-8161-03af0fa56f89","1","1768025038835","-2.69805","12.196051","3.11295","0.177925","0.1304875","0.4525125","-0.2269611358642578","-1.275766372680664","2.997595252990722","15.3277492","74.124572","0.096519776","3.2656804031638007","0.0"
"e15c8139-a7be-4d15-8161-03af0fa56f89","1","1768025038846","-2.69805","12.196051","3.11295","0.177925","0.1304875","0.4525125","-0.2269611358642578","-1.275766372680664","2.997595252990722","15.3277492","74.124572","0.096519776","3.2656804031638007","0.0"
"e15c8139-a7be-4d15-8161-03af0fa56f89","1","1768025038857","-2.2390501","12.44505","4.60605","0.3705625","0.1230625","0.3161125","1.283931016921997","-1.260504961013794","3.5268301391601558","15.3277492","74.124572","0.096519776","3.959278020478378","0.0"
"e15c8139-a7be-4d15-8161-03af0fa56f89","1","1768025038868","-2.2390501","12.44505","4.60605","0.3705625","0.1230625","0.3161125","1.283931016921997","-1.260504961013794","3.5268301391601558","15.3277492","74.124572","0.096519776","3.959278020478378","0.0"
"e15c8139-a7be-4d15-8161-03af0fa56f89","1","1768025038879","-1.128","11.679001","4.281","0.34485","0.132275","0.2151875","1.4922528266906738","-0.3364338278770447","2.5859045410156245","15.3277492","74.124572","0.096519776","3.004481405259739","0.0"
"e15c8139-a7be-4d15-8161-03af0fa56f89","1","1768025038889","-1.128","11.679001","4.281","0.34485","0.132275","0.2151875","1.4922528266906738","-0.3364338278770447","2.5859045410156245","15.3277492","74.124572","0.096519776","3.004481405259739","0.0"
"e15c8139-a7be-4d15-8161-03af0fa56f89","1","1768025038900","-0.112950005","11.06595","2.7490501","0.3025","0.14905","0.05995","0.48185110092163086","0.8161947131156921","1.553404273986816","15.3277492","74.124572","0.096519776","1.8197305107124795","0.0"
"e15c8139-a7be-4d15-8161-03af0fa56f89","1","1768025038911","-0.112950005","11.06595","2.7490501","0.3025","0.14905","0.05995","0.48185110092163086","0.8161947131156921","1.553404273986816","15.3277492","74.124572","0.096519776","1.8197305107124795","0.0"
"e15c8139-a7be-4d15-8161-03af0fa56f89","1","1768025038921","-0.112950005","11.06595","2.7490501","0.3025","0.14905","0.05995","0.48185110092163086","0.8161947131156921","1.553404273986816","15.3277492","74.124572","0.096519776","1.8197305107124795","0.0"
"e15c8139-a7be-4d15-8161-03af0fa56f89","1","1768025038932","-0.49605003","11.449051","1.2940501","0.2715625","0.1142625","-0.0092124995","-0.9829913377761841","0.7788735628128052","1.6542267227172847","15.3277492","74.124572","0.096519776","2.0759051151590944","0.0"
"e15c8139-a7be-4d15-8161-03af0fa56f89","1","1768025038943","-0.49605003","11.449051","1.2940501","0.2715625","0.1142625","-0.0092124995","-0.9829913377761841","0.7788735628128052","1.6542267227172847","15.3277492","74.124572","0.096519776","2.0759051151590944","0.0"
"e15c8139-a7be-4d15-8161-03af0fa56f89","1","1768025038953","-1.7410501","11.736001","0.79605","0.26427498","0.0845625","0.007425","-1.7155168056488037","-0.29201728105545044","1.9530939483642573","15.3277492","74.124572","0.096519776","2.615883784504881","0.0"
"e15c8139-a7be-4d15-8161-03af0fa56f89","1","1768025038964","-1.7410501","11.736001","0.79605","0.26427498","0.0845625","0.007425","-1.7155168056488037","-0.29201728105545044","1.9530939483642573","15.3277492","74.124572","0.096519776","2.615883784504881","0.0"
"e15c8139-a7be-4d15-8161-03af0fa56f89","2","1768025038974","-2.4490502","10.72095","1.50405","0.397925","0.0235125","-0.010725","-0.9448130130767822","-1.272101640701294","1.1758026504516597","15.3277479","74.1245739","0.13857518","1.9731766486463647","0.0"
"e15c8139-a7be-4d15-8161-03af0fa56f89","2","1768025038985","-2.4490502","10.72095","1.50405","0.397925","0.0235125","-0.010725","-0.9448130130767822","-1.272101640701294","1.1758026504516597","15.3277479","74.1245739","0.13857518","1.9731766486463647","0.0"
"e15c8139-a7be-4d15-8161-03af0fa56f89","2","1768025038996","-2.4490502","10.72095","1.50405","0.397925","0.0235125","-0.010725","-0.9448130130767822","-1.272101640701294","1.1758026504516597","15.3277479","74.1245739","0.13857518","1.9731766486463647","0.0"
"e15c8139-a7be-4d15-8161-03af0fa56f89","2","1768025039007","-2.35305","9.189","1.46595","0.5226375","-0.006325","-0.0490875","-0.6020090579986572","-1.3618158102035522","-0.32809120178222706","15.3277479","74.1245739","0.13857518","1.5246642396015242","0.0"
"e15c8139-a7be-4d15-8161-03af0fa56f89","2","1768025039018","-2.35305","9.189","1.46595","0.5226375","-0.006325","-0.0490875","-0.6020090579986572","-1.3618158102035522","-0.32809120178222706","15.3277479","74.1245739","0.13857518","1.5246642396015242","0.0"
"e15c8139-a7be-4d15-8161-03af0fa56f89","2","1768025039029","-2.39205","7.5810003","0.46995002","0.54202497","-0.00385","-0.1285625","-1.2108724117279053","-1.4066650867462158","-2.0660076713562017","15.3277479","74.1245739","0.13857518","2.7772839901344564","0.0"
"e15c8139-a7be-4d15-8161-03af0fa56f89","2","1768025039040","-2.39205","7.5810003","0.46995002","0.54202497","-0.00385","-0.1285625","-1.2108724117279053","-1.4066650867462158","-2.0660076713562017","15.3277479","74.1245739","0.13857518","2.7772839901344564","0.0"
"e15c8139-a7be-4d15-8161-03af0fa56f89","2","1768025039051","-2.60205","7.3510504","0.049050003","0.5077875","0.015125","-0.2545125","-1.5292840003967285","-1.54353666305542","-2.3206863975524907","15.3277479","74.1245739","0.13857518","3.1791194283717683","0.0"
"e15c8139-a7be-4d15-8161-03af0fa56f89","2","1768025039062","-2.60205","7.3510504","0.049050003","0.5077875","0.015125","-0.2545125","-1.5292840003967285","-1.54353666305542","-2.3206863975524907","15.3277479","74.1245739","0.13857518","3.1791194283717683","0.0"
"e15c8139-a7be-4d15-8161-03af0fa56f89","2","1768025039073","-2.5069501","6.5280004","2.8260002","0.48785","0.0396","-0.2704625","1.3648751974105835","-2.142615795135498","-2.708438453674317","15.3277479","74.1245739","0.13857518","3.713398121318589","0.0"
"e15c8139-a7be-4d15-8161-03af0fa56f89","2","1768025039084","-2.5069501","6.5280004","2.8260002","0.48785","0.0396","-0.2704625","1.3648751974105835","-2.142615795135498","-2.708438453674317","15.3277479","74.1245739","0.13857518","3.713398121318589","0.0"
"e15c8139-a7be-4d15-8161-03af0fa56f89","2","1768025039094","-1.79805","6.7759504","3.5530503","0.30305","0.0930875","-0.31239998","2.2886648178100586","-1.5538365840911865","-2.453487930297852","15.3277479","74.1245739","0.13857518","3.697566470323279","0.0"
"e15c8139-a7be-4d15-8161-03af0fa56f89","2","1768025039105","-1.79805","6.7759504","3.5530503","0.30305","0.0930875","-0.31239998","2.2886648178100586","-1.5538365840911865","-2.453487930297852","15.3277479","74.1245739","0.13857518","3.697566470323279","0.0"
"e15c8139-a7be-4d15-8161-03af0fa56f89","2","1768025039116","-1.79805","6.7759504","3.5530503","0.30305","0.0930875","-0.31239998","2.2886648178100586","-1.5538365840911865","-2.453487930297852","15.3277479","74.1245739","0.13857518","3.697566470323279","0.0"
"e15c8139-a7be-4d15-8161-03af0fa56f89","2","1768025039127","-1.1659501","7.3320003","3.63","0.1860375","0.138875","-0.309925","2.509803295135498","-0.8287221789360046","-1.9800134277343755","15.3277479","74.1245739","0.13857518","3.3024757688954924","0.0"
"e15c8139-a7be-4d15-8161-03af0fa56f89","2","1768025039138","-1.1659501","7.3320003","3.63","0.1860375","0.138875","-0.309925","2.509803295135498","-0.8287221789360046","-1.9800134277343755","15.3277479","74.1245739","0.13857518","3.3024757688954924","0.0"
"e15c8139-a7be-4d15-8161-03af0fa56f89","2","1768025039148","-2.21895","8.365951","3.5719502","0.0911625","0.1832875","-0.30635","2.1331801414489746","-1.6015461683273315","-0.8346829986572271","15.3277479","74.1245739","0.13857518","2.795014016673914","0.0"
"e15c8139-a7be-4d15-8161-03af0fa56f89","2","1768025039160","-2.21895","8.365951","3.5719502","0.0911625","0.1832875","-0.30635","2.1331801414489746","-1.6015461683273315","-0.8346829986572271","15.3277479","74.1245739","0.13857518","2.795014016673914","0.0"
"e15c8139-a7be-4d15-8161-03af0fa56f89","2","1768025039171","-3.9810002","11.06595","3.1320002","-0.0202125","0.242275","-0.3223","1.0735325813293457","-2.673311471939087","2.014295043945312","15.3277479","74.1245739","0.13857518","3.515174384470765","0.0"
"e15c8139-a7be-4d15-8161-03af0fa56f89","2","1768025039182","-3.9810002","11.06595","3.1320002","-0.0202125","0.242275","-0.3223","1.0735325813293457","-2.673311471939087","2.014295043945312","15.3277479","74.1245739","0.13857518","3.515174384470765","0.0"
"e15c8139-a7be-4d15-8161-03af0fa56f89","2","1768025039193","-4.03905","13.249051","3.4960501","-0.1040875","0.302225","-0.4939","1.2394790649414062","-2.3173627853393555","4.231625022888183","15.3277479","74.1245739","0.13857518","4.98127784465364","0.0"
"e15c8139-a7be-4d15-8161-03af0fa56f89","2","1768025039204","-4.03905","13.249051","3.4960501","-0.1040875","0.302225","-0.4939","1.2394790649414062","-2.3173627853393555","4.231625022888183","15.3277479","74.1245739","0.13857518","4.98127784465364","0.0"
"e15c8139-a7be-4d15-8161-03af0fa56f89","2","1768025039214","-4.03905","13.249051","3.4960501","-0.1040875","0.302225","-0.4939","1.2394790649414062","-2.3173627853393555","4.231625022888183","15.3277479","74.1245739","0.13857518","4.98127784465364","0.0"
"e15c8139-a7be-4d15-8161-03af0fa56f89","2","1768025039225","-3.00495","14.953051","2.7490501","-0.302775","0.388575","-0.7088125","0.6007797718048096","-0.6729224324226379","5.661488952636718","15.3277479","74.1245739","0.13857518","5.732906600939444","0.0"
"e15c8139-a7be-4d15-8161-03af0fa56f89","2","1768025039236","-1.9900501","14.24505","2.8260002","-0.4081","0.3986125","-0.5831375","0.9266022443771362","0.44211602210998535","4.812381210327148","15.3277479","74.1245739","0.13857518","4.9206779217706265","0.0"
"e15c8139-a7be-4d15-8161-03af0fa56f89","2","1768025039247","-1.9900501","14.24505","2.8260002","-0.4081","0.3986125","-0.5831375","0.9266022443771362","0.44211602210998535","4.812381210327148","15.3277479","74.1245739","0.13857518","4.9206779217706265","0.0"
"e15c8139-a7be-4d15-8161-03af0fa56f89","2","1768025039258","-1.9900501","14.24505","2.8260002","-0.4081","0.3986125","-0.5831375","0.9266022443771362","0.44211602210998535","4.812381210327148","15.3277479","74.1245739","0.13857518","4.9206779217706265","0.0"
"e15c8139-a7be-4d15-8161-03af0fa56f89","2","1768025039269","-2.5450501","12.042001","1.96395","-0.3991625","0.35433748","-0.3342625","0.13028573989868164","-0.16842079162597656","2.6518949890136714","15.3277479","74.1245739","0.13857518","2.660429846815865","0.0"
"e15c8139-a7be-4d15-8161-03af0fa56f89","2","1768025039280","-2.5450501","12.042001","1.96395","-0.3991625","0.35433748","-0.3342625","0.13028573989868164","-0.16842079162597656","2.6518949890136714","15.3277479","74.1245739","0.13857518","2.660429846815865","0.0"
"e15c8139-a7be-4d15-8161-03af0fa56f89","2","1768025039291","-2.5450501","9.99405","0.06795","-0.3012625","0.294525","-0.09515","-1.5346310138702393","-0.19097299873828888","0.3866361999511714","15.3277479","74.1245739","0.13857518","1.5940673091473192","0.0"
"e15c8139-a7be-4d15-8161-03af0fa56f89","2","1768025039302","-2.5450501","9.99405","0.06795","-0.3012625","0.294525","-0.09515","-1.5346310138702393","-0.19097299873828888","0.3866361999511714","15.3277479","74.1245739","0.13857518","1.5940673091473192","0.0"
"e15c8139-a7be-4d15-8161-03af0fa56f89","2","1768025039313","-1.60695","10.54905","-1.51995","-0.2264625","0.2684","-0.006325","-2.944276809692383","1.1001797914505005","0.49998706817626903","15.3277479","74.1245739","0.13857518","3.1826323340832072","0.0"
"e15c8139-a7be-4d15-8161-03af0fa56f89","2","1768025039323","-1.60695","10.54905","-1.51995","-0.2264625","0.2684","-0.006325","-2.944276809692383","1.1001797914505005","0.49998706817626903","15.3277479","74.1245739","0.13857518","3.1826323340832072","0.0"
"e15c8139-a7be-4d15-8161-03af0fa56f89","2","1768025039334","-1.8169501","8.940001","2.1360002","0.1700875","0.1692625","0.11165","0.7560921907424927","-0.014158487319946289","-0.4710736846923833","15.3277479","74.1245739","0.13857518","0.8909468446964892","0.0"
"e15c8139-a7be-4d15-8161-03af0fa56f89","2","1768025039345","-1.8169501","8.940001","2.1360002","0.1700875","0.1692625","0.11165","0.7560921907424927","-0.014158487319946289","-0.4710736846923833","15.3277479","74.1245739","0.13857518","0.8909468446964892","0.0"
"e15c8139-a7be-4d15-8161-03af0fa56f89","2","1768025039356","-1.8169501","8.940001","2.1360002","0.1700875","0.1692625","0.11165","0.7560921907424927","-0.014158487319946289","-0.4710736846923833","15.3277479","74.1245739","0.13857518","0.8909468446964892","0.0"
"e15c8139-a7be-4d15-8161-03af0fa56f89","2","1768025039367","-1.626","6.62295","5.6400003","0.311025","0.115775","0.128975","4.470223903656006","-0.8701514601707458","-2.2220554924011235","15.3277479","74.1245739","0.13857518","5.06730657487435","0.0"
"e15c8139-a7be-4d15-8161-03af0fa56f89","2","1768025039378","-1.626","6.62295","5.6400003","0.311025","0.115775","0.128975","4.470223903656006","-0.8701514601707458","-2.2220554924011235","15.3277479","74.1245739","0.13857518","5.06730657487435","0.0"
"e15c8139-a7be-4d15-8161-03af0fa56f89","2","1768025039389","0.28800002","4.8229504","5.29605","0.2745875","0.093637496","0.1060125","4.692570209503174","0.5975176692008972","-4.423470077514649","15.3277479","74.1245739","0.13857518","6.47644424532408","0.0"
"e15c8139-a7be-4d15-8161-03af0fa56f89","2","1768025039400","0.28800002","4.8229504","5.29605","0.2745875","0.093637496","0.1060125","4.692570209503174","0.5975176692008972","-4.423470077514649","15.3277479","74.1245739","0.13857518","6.47644424532408","0.0"
"e15c8139-a7be-4d15-8161-03af0fa56f89","2","1768025039411","1.092","2.7930002","3.5530503","0.02475","0.0815375","0.186725","3.3688857555389404","1.1584303379058838","-6.82233720779419","15.3277479","74.1245739","0.13857518","7.696469129315529","0.0"
"e15c8139-a7be-4d15-8161-03af0fa56f89","2","1768025039422","1.092","2.7930002","3.5530503","0.02475","0.0815375","0.186725","3.3688857555389404","1.1584303379058838","-6.82233720779419","15.3277479","74.1245739","0.13857518","7.696469129315529","0.0"
"e15c8139-a7be-4d15-8161-03af0fa56f89","2","1768025039433","0.74805003","3.86595","1.332","-0.2820125","0.0554125","0.4959625","1.019099473953247","1.3645910024642944","-6.018074092864991","15.3277479","74.1245739","0.13857518","6.254429480698545","0.0"
"e15c8139-a7be-4d15-8161-03af0fa56f89","2","1768025039444","0.74805003","3.86595","1.332","-0.2820125","0.0554125","0.4959625","1.019099473953247","1.3645910024642944","-6.018074092864991","15.3277479","74.1245739","0.13857518","6.254429480698545","0.0"
"e15c8139-a7be-4d15-8161-03af0fa56f89","2","1768025039455","0.441","8.02095","1.2739501","-0.2432375","-0.0108624995","0.7401625","0.39800792932510376","1.8847063779830933","-1.9079399681091314","15.3277479","74.1245739","0.13857518","2.7112291243869597","0.0"
"e15c8139-a7be-4d15-8161-03af0fa56f89","2","1768025039466","0.441","8.02095","1.2739501","-0.2432375","-0.0108624995","0.7401625","0.39800792932510376","1.8847063779830933","-1.9079399681091314","15.3277479","74.1245739","0.13857518","2.7112291243869597","0.0"
"e15c8139-a7be-4d15-8161-03af0fa56f89","2","1768025039477","-0.726","9.208051","5.583","-0.2481875","-0.0075625","0.737","4.057077407836914","0.2069339156150818","0.18912357330322216","15.3277479","74.1245739","0.13857518","4.0667513403933935","0.0"
"e15c8139-a7be-4d15-8161-03af0fa56f89","2","1768025039487","-0.726","9.208051","5.583","-0.2481875","-0.0075625","0.737","4.057077407836914","0.2069339156150818","0.18912357330322216","15.3277479","74.1245739","0.13857518","4.0667513403933935","0.0"
"e15c8139-a7be-4d15-8161-03af0fa56f89","2","1768025039498","-0.726","9.208051","5.583","-0.2481875","-0.0075625","0.737","4.057077407836914","0.2069339156150818","0.18912357330322216","15.3277479","74.1245739","0.13857518","4.0667513403933935","0.0"
"e15c8139-a7be-4d15-8161-03af0fa56f89","2","1768025039509","-3.828","11.334001","5.9659505","-0.4351875","0.041249998","0.6854375","3.4844884872436523","-2.658257484436035","2.8192419433593745","15.3277479","74.1245739","0.13857518","5.211153231914266","0.0"
"e15c8139-a7be-4d15-8161-03af0fa56f89","2","1768025039520","-3.828","11.334001","5.9659505","-0.4351875","0.041249998","0.6854375","3.4844884872436523","-2.658257484436035","2.8192419433593745","15.3277479","74.1245739","0.13857518","5.211153231914266","0.0"
"e15c8139-a7be-4d15-8161-03af0fa56f89","2","1768025039530","-3.9619503","16.734001","0.60405004","-0.7640875","0.1530375","0.503525","-2.7762815952301025","-1.3801089525222778","7.115611495971679","15.3277479","74.1245739","0.13857518","7.761724497716333","0.0"
"e15c8139-a7be-4d15-8161-03af0fa56f89","2","1768025039541","-3.9619503","16.734001","0.60405004","-0.7640875","0.1530375","0.503525","-2.7762815952301025","-1.3801089525222778","7.115611495971679","15.3277479","74.1245739","0.13857518","7.761724497716333","0.0"
"e15c8139-a7be-4d15-8161-03af0fa56f89","2","1768025039552","-1.14705","23.39805","-3.7030501","-0.737825","0.16995","0.3664375","-8.038374900817871","2.746492862701416","12.333587112426757","15.3277479","74.1245739","0.13857518","14.975849396638173","0.0"
"e15c8139-a7be-4d15-8161-03af0fa56f89","2","1768025039563","-1.14705","23.39805","-3.7030501","-0.737825","0.16995","0.3664375","-8.038374900817871","2.746492862701416","12.333587112426757","15.3277479","74.1245739","0.13857518","14.975849396638173","0.0"
"e15c8139-a7be-4d15-8161-03af0fa56f89","2","1768025039574","1.15005","21.04305","-1.08","0.1753125","-0.0801625","0.382525","-5.091194152832031","4.178005218505859","10.238017501831054","15.3277479","74.1245739","0.13857518","12.17345422940803","0.0"
"e15c8139-a7be-4d15-8161-03af0fa56f89","2","1768025039585","1.15005","21.04305","-1.08","0.1753125","-0.0801625","0.382525","-5.091194152832031","4.178005218505859","10.238017501831054","15.3277479","74.1245739","0.13857518","12.17345422940803","0.0"
"e15c8139-a7be-4d15-8161-03af0fa56f89","2","1768025039596","1.22595","14.647051","4.4149504","0.6007375","-0.2187625","0.568975","1.5649914741516113","2.527947425842285","5.246266784667968","15.3277479","74.1245739","0.13857518","6.030176753454268","0.0"
"e15c8139-a7be-4d15-8161-03af0fa56f89","2","1768025039607","1.22595","14.647051","4.4149504","0.6007375","-0.2187625","0.568975","1.5649914741516113","2.527947425842285","5.246266784667968","15.3277479","74.1245739","0.13857518","6.030176753454268","0.0"
"e15c8139-a7be-4d15-8161-03af0fa56f89","2","1768025039617","1.22595","14.647051","4.4149504","0.6007375","-0.2187625","0.568975","1.5649914741516113","2.527947425842285","5.246266784667968","15.3277479","74.1245739","0.13857518","6.030176753454268","0.0"
"e15c8139-a7be-4d15-8161-03af0fa56f89","2","1768025039628","-1.10895","9.76395","3.15105","0.654775","-0.241175","0.63305","1.0489869117736816","-0.4087230861186981","0.4479832077026362","15.3277479","74.1245739","0.13857518","1.2116588036994662","0.0"
"e15c8139-a7be-4d15-8161-03af0fa56f89","2","1768025039639","-1.10895","9.76395","3.15105","0.654775","-0.241175","0.63305","1.0489869117736816","-0.4087230861186981","0.4479832077026362","15.3277479","74.1245739","0.13857518","1.2116588036994662","0.0"
"e15c8139-a7be-4d15-8161-03af0fa56f89","2","1768025039649","-2.334","6.1639504","-0.67800003","0.66055","-0.207075","0.4481125","-2.1069767475128174","-1.6007882356643677","-3.735491809844971","15.3277479","74.1245739","0.13857518","4.577747595861964","0.0"
"e15c8139-a7be-4d15-8161-03af0fa56f89","2","1768025039660","-2.334","6.1639504","-0.67800003","0.66055","-0.207075","0.4481125","-2.1069767475128174","-1.6007882356643677","-3.735491809844971","15.3277479","74.1245739","0.13857518","4.577747595861964","0.0"
"e15c8139-a7be-4d15-8161-03af0fa56f89","2","1768025039670","-3.38805","5.14905","-1.8840001","0.8655625","-0.20185","0.1617","-3.210405111312866","-2.6156375408172607","-4.871092376708985","15.3277479","74.1245739","0.13857518","6.393418621215783","0.0"
"e15c8139-a7be-4d15-8161-03af0fa56f89","2","1768025039681","-3.38805","5.14905","-1.8840001","0.8655625","-0.20185","0.1617","-3.210405111312866","-2.6156375408172607","-4.871092376708985","15.3277479","74.1245739","0.13857518","6.393418621215783","0.0"
"e15c8139-a7be-4d15-8161-03af0fa56f89","2","1768025039692","-3.081","3.732","0.56595004","0.950125","-0.16775","-0.17325","-0.48721086978912354","-2.8306729793548584","-5.874189434051514","15.3277479","74.1245739","0.13857518","6.53882141175402","0.0"
"e15c8139-a7be-4d15-8161-03af0fa56f89","2","1768025039703","-3.081","3.732","0.56595004","0.950125","-0.16775","-0.17325","-0.48721086978912354","-2.8306729793548584","-5.874189434051514","15.3277479","74.1245739","0.13857518","6.53882141175402","0.0"
"e15c8139-a7be-4d15-8161-03af0fa56f89","2","1768025039713","-3.081","3.732","0.56595004","0.950125","-0.16775","-0.17325","-0.48721086978912354","-2.8306729793548584","-5.874189434051514","15.3277479","74.1245739","0.13857518","6.53882141175402","0.0"
"e15c8139-a7be-4d15-8161-03af0fa56f89","2","1768025039724","-2.20005","2.2380002","2.2699502","0.8636375","-0.122925","-0.4060375","1.5797122716903687","-2.358372926712036","-7.174828109741211","15.3277479","74.1245739","0.13857518","7.715929764267563","0.0"
"e15c8139-a7be-4d15-8161-03af0fa56f89","2","1768025039735","-2.20005","2.2380002","2.2699502","0.8636375","-0.122925","-0.4060375","1.5797122716903687","-2.358372926712036","-7.174828109741211","15.3277479","74.1245739","0.13857518","7.715929764267563","0.0"
"e15c8139-a7be-4d15-8161-03af0fa56f89","2","1768025039746","-0.89805007","1.6639501","1.7719501","0.90956247","-0.1040875","-0.6326375","1.4207031726837158","-1.037130355834961","-7.907108602523804","15.3277479","74.1245739","0.13857518","8.100395257762049","0.0"
"e15c8139-a7be-4d15-8161-03af0fa56f89","2","1768025039757","-0.89805007","1.6639501","1.7719501","0.90956247","-0.1040875","-0.6326375","1.4207031726837158","-1.037130355834961","-7.907108602523804","15.3277479","74.1245739","0.13857518","8.100395257762049","0.0"
"e15c8139-a7be-4d15-8161-03af0fa56f89","2","1768025039767","-0.78300005","3.7510502","1.04505","1.0432125","-0.0818125","-0.3350875","0.6196281909942627","-0.5854779481887817","-5.93071180343628","15.3277479","74.1245739","0.13857518","5.991666380758243","0.0"
"e15c8139-a7be-4d15-8161-03af0fa56f89","2","1768025039778","-0.78300005","3.7510502","1.04505","1.0432125","-0.0818125","-0.3350875","0.6196281909942627","-0.5854779481887817","-5.93071180343628","15.3277479","74.1245739","0.13857518","5.991666380758243","0.0"
"e15c8139-a7be-4d15-8161-03af0fa56f89","2","1768025039789","-0.95595","6.642","3.45705","0.74593747","0.035475","-0.1610125","2.921030282974243","-0.8680500984191895","-2.903823432922364","15.3277479","74.1245739","0.13857518","4.209289657057016","0.0"
"e15c8139-a7be-4d15-8161-03af0fa56f89","2","1768025039800","-0.95595","6.642","3.45705","0.74593747","0.035475","-0.1610125","2.921030282974243","-0.8680500984191895","-2.903823432922364","15.3277479","74.1245739","0.13857518","4.209289657057016","0.0"
"e15c8139-a7be-4d15-8161-03af0fa56f89","2","1768025039810","-0.95595","6.642","3.45705","0.74593747","0.035475","-0.1610125","2.921030282974243","-0.8680500984191895","-2.903823432922364","15.3277479","74.1245739","0.13857518","4.209289657057016","0.0"
"e15c8139-a7be-4d15-8161-03af0fa56f89","2","1768025039821","-0.95595","6.642","3.45705","0.74593747","0.035475","-0.1610125","2.921030282974243","-0.8680500984191895","-2.903823432922364","15.3277479","74.1245739","0.13857518","4.209289657057016","0.0"
"e15c8139-a7be-4d15-8161-03af0fa56f89","2","1768025039832","-0.61095005","8.481","7.0000505","-0.2272875","0.2952125","-0.30085","6.349179744720459","-0.9195999503135681","-0.8577046966552739","15.3277479","74.1245739","0.13857518","6.4725114790203175","0.0"
"e15c8139-a7be-4d15-8161-03af0fa56f89","2","1768025039843","-0.36195","8.575951","9.316951","-2.096875","0.843425","-0.539","8.581074714660645","-0.8807889223098755","-0.5324521636962896","15.3277479","74.1245739","0.13857518","8.642577028345013","0.0"
"e15c8139-a7be-4d15-8161-03af0fa56f89","2","1768025039854","-0.36195","8.575951","9.316951","-2.096875","0.843425","-0.539","8.581074714660645","-0.8807889223098755","-0.5324521636962896","15.3277479","74.1245739","0.13857518","8.642577028345013","0.0"
"e15c8139-a7be-4d15-8161-03af0fa56f89","2","1768025039864","-1.3960501","9.45705","7.9189506","-2.3827374","1.0236875","-0.5515125","6.49097204208374","-1.1633398532867432","0.7070555114746089","15.3277479","74.1245739","0.13857518","6.632194596184931","0.0"
"e15c8139-a7be-4d15-8161-03af0fa56f89","2","1768025039875","-1.3960501","9.45705","7.9189506","-2.3827374","1.0236875","-0.5515125","6.49097204208374","-1.1633398532867432","0.7070555114746089","15.3277479","74.1245739","0.13857518","6.632194596184931","0.0"
"e15c8139-a7be-4d15-8161-03af0fa56f89","2","1768025039886","-1.3960501","9.45705","7.9189506","-2.3827374","1.0236875","-0.5515125","6.49097204208374","-1.1633398532867432","0.7070555114746089","15.3277479","74.1245739","0.13857518","6.632194596184931","0.0"
"e15c8139-a7be-4d15-8161-03af0fa56f89","2","1768025039897","-2.9850001","12.52095","3.7060502","-2.587475","1.1405625","-0.2165625","1.1151819229125977","-1.4130284786224365","3.46324104309082","15.3277479","74.1245739","0.13857518","3.9031165400405183","0.0"
"e15c8139-a7be-4d15-8161-03af0fa56f89","2","1768025039908","-2.9850001","12.52095","3.7060502","-2.587475","1.1405625","-0.2165625","1.1151819229125977","-1.4130284786224365","3.46324104309082","15.3277479","74.1245739","0.13857518","3.9031165400405183","0.0"
"e15c8139-a7be-4d15-8161-03af0fa56f89","2","1768025039919","-3.8850002","14.379001","1.7530501","-2.3898876","1.0957375","-0.0210375","-1.9891759157180786","-1.638195276260376","4.964355888366699","15.3277479","74.1245739","0.13857518","5.593329417546921","0.0"
"e15c8139-a7be-4d15-8161-03af0fa56f89","2","1768025039930","-3.8850002","14.379001","1.7530501","-2.3898876","1.0957375","-0.0210375","-1.9891759157180786","-1.638195276260376","4.964355888366699","15.3277479","74.1245739","0.13857518","5.593329417546921","0.0"
"e15c8139-a7be-4d15-8161-03af0fa56f89","2","1768025039941","-4.28805","14.953051","3.8790002","-1.6119125","0.8479625","0.253","-0.8587217330932617","-1.8870409727096558","6.087464752197265","15.3277479","74.1245739","0.13857518","6.430828388070685","0.0"
"e15c8139-a7be-4d15-8161-03af0fa56f89","2","1768025039952","-4.28805","14.953051","3.8790002","-1.6119125","0.8479625","0.253","-0.8587217330932617","-1.8870409727096558","6.087464752197265","15.3277479","74.1245739","0.13857518","6.430828388070685","0.0"
"e15c8139-a7be-4d15-8161-03af0fa56f89","2","1768025039962","-3.3679502","13.938001","5.35305","-1.0943625","0.6964375","0.314875","0.40146923065185547","-1.1113053560256958","5.450076522827148","15.3277479","74.1245739","0.13857518","5.576693576140189","0.0"
"e15c8139-a7be-4d15-8161-03af0fa56f89","3","1768025039973","-3.3679502","13.938001","5.35305","-1.0943625","0.6964375","0.314875","0.40146923065185547","-1.1113053560256958","5.450076522827148","15.3277454","74.12458","0.10375203","5.576693576140189","0.0"
"e15c8139-a7be-4d15-8161-03af0fa56f89","3","1768025039983","-0.85995007","12.00405","3.24705","-0.6909375","0.56485","0.339075","-1.1642625331878662","1.013879418373108","2.5591787719726558","15.3277454","74.12458","0.10375203","2.9887881671508754","0.0"
"e15c8139-a7be-4d15-8161-03af0fa56f89","3","1768025039994","-0.85995007","12.00405","3.24705","-0.6909375","0.56485","0.339075","-1.1642625331878662","1.013879418373108","2.5591787719726558","15.3277454","74.12458","0.10375203","2.9887881671508754","0.0"
"e15c8139-a7be-4d15-8161-03af0fa56f89","3","1768025040005","0.91995007","9.76395","0.94905007","-0.1948375","0.34375","0.396","-2.5459823608398438","2.2539117336273193","-0.5623174285888677","15.3277454","74.12458","0.10375203","3.446497522875264","0.0"
"e15c8139-a7be-4d15-8161-03af0fa56f89","3","1768025040016","0.91995007","9.76395","0.94905007","-0.1948375","0.34375","0.396","-2.5459823608398438","2.2539117336273193","-0.5623174285888677","15.3277454","74.12458","0.10375203","3.446497522875264","0.0"
"e15c8139-a7be-4d15-8161-03af0fa56f89","3","1768025040026","0.91995007","9.76395","0.94905007","-0.1948375","0.34375","0.396","-2.5459823608398438","2.2539117336273193","-0.5623174285888677","15.3277454","74.12458","0.10375203","3.446497522875264","0.0"
"e15c8139-a7be-4d15-8161-03af0fa56f89","3","1768025040037","1.131","6.2790003","2.09805","-0.0015125","0.230725","0.4103","-0.2747455835342407","2.001110076904297","-3.4047761535644536","15.3277454","74.12458","0.10375203","3.958841665366354","0.0"
"e15c8139-a7be-4d15-8161-03af0fa56f89","3","1768025040048","1.131","6.2790003","2.09805","-0.0015125","0.230725","0.4103","-0.2747455835342407","2.001110076904297","-3.4047761535644536","15.3277454","74.12458","0.10375203","3.958841665366354","0.0"
"e15c8139-a7be-4d15-8161-03af0fa56f89","3","1768025040058","1.131","4.07595","3.0550501","0.049775","0.1282875","0.3982","1.3924274444580078","1.757070779800415","-5.098342952728272","15.3277454","74.12458","0.10375203","5.569493044877813","0.0"
"e15c8139-a7be-4d15-8161-03af0fa56f89","3","1768025040069","1.131","4.07595","3.0550501","0.049775","0.1282875","0.3982","1.3924274444580078","1.757070779800415","-5.098342952728272","15.3277454","74.12458","0.10375203","5.569493044877813","0.0"
"e15c8139-a7be-4d15-8161-03af0fa56f89","3","1768025040079","0.135","4.45905","1.50405","0.31075","-0.0119624995","0.4483875","-0.17485761642456055","0.6860945224761963","-5.155730781555176","15.3277454","74.12458","0.10375203","5.204119596211166","0.0"
"e15c8139-a7be-4d15-8161-03af0fa56f89","3","1768025040090","0.135","4.45905","1.50405","0.31075","-0.0119624995","0.4483875","-0.17485761642456055","0.6860945224761963","-5.155730781555176","15.3277454","74.12458","0.10375203","5.204119596211166","0.0"
"e15c8139-a7be-4d15-8161-03af0fa56f89","3","1768025040102","-0.036000002","7.4470506","-0.56295","0.7253125","-0.1181125","0.3273875","-3.103240728378296","0.6252316236495972","-3.045700607299805","15.3277454","74.12458","0.10375203","4.3928703362134165","0.0"
"e15c8139-a7be-4d15-8161-03af0fa56f89","3","1768025040113","-0.036000002","7.4470506","-0.56295","0.7253125","-0.1181125","0.3273875","-3.103240728378296","0.6252316236495972","-3.045700607299805","15.3277454","74.12458","0.10375203","4.3928703362134165","0.0"
"e15c8139-a7be-4d15-8161-03af0fa56f89","3","1768025040124","-0.036000002","7.4470506","-0.56295","0.7253125","-0.1181125","0.3273875","-3.103240728378296","0.6252316236495972","-3.045700607299805","15.3277454","74.12458","0.10375203","4.3928703362134165","0.0"
"e15c8139-a7be-4d15-8161-03af0fa56f89","3","1768025040135","0.65205","9.99405","1.026","1.3299","-0.2825625","0.2638625","-2.2240874767303467","1.5400667190551758","-0.1125512695312505","15.3277454","74.12458","0.10375203","2.707589036682493","0.0"
"e15c8139-a7be-4d15-8161-03af0fa56f89","3","1768025040145","0.65205","9.99405","1.026","1.3299","-0.2825625","0.2638625","-2.2240874767303467","1.5400667190551758","-0.1125512695312505","15.3277454","74.12458","0.10375203","2.707589036682493","0.0"
"e15c8139-a7be-4d15-8161-03af0fa56f89","3","1768025040156","0.69000006","10.587001","4.49205","1.2857625","-0.29535","0.30621248","1.243518352508545","1.6976064443588257","1.5174440765380854","15.3277454","74.12458","0.10375203","2.594386643963213","0.0"
"e15c8139-a7be-4d15-8161-03af0fa56f89","3","1768025040167","0.69000006","10.587001","4.49205","1.2857625","-0.29535","0.30621248","1.243518352508545","1.6976064443588257","1.5174440765380854","15.3277454","74.12458","0.10375203","2.594386643963213","0.0"
"e15c8139-a7be-4d15-8161-03af0fa56f89","3","1768025040178","-1.5490501","11.43","5.35305","0.5715875","-0.2938375","0.8358625","2.2216787338256836","-0.5551797747612","2.698217811584472","15.3277454","74.12458","0.10375203","3.5389914294031413","0.0"
"e15c8139-a7be-4d15-8161-03af0fa56f89","3","1768025040189","-1.5490501","11.43","5.35305","0.5715875","-0.2938375","0.8358625","2.2216787338256836","-0.5551797747612","2.698217811584472","15.3277454","74.12458","0.10375203","3.5389914294031413","0.0"
"e15c8139-a7be-4d15-8161-03af0fa56f89","3","1768025040200","-3.4069502","11.71695","3.63","0.3606625","-0.2657875","0.8569","0.6604750156402588","-2.6983163356781006","2.613930168151855","15.3277454","74.12458","0.10375203","3.814415973336767","0.0"
"e15c8139-a7be-4d15-8161-03af0fa56f89","3","1768025040211","-3.4069502","11.71695","3.63","0.3606625","-0.2657875","0.8569","0.6604750156402588","-2.6983163356781006","2.613930168151855","15.3277454","74.12458","0.10375203","3.814415973336767","0.0"
"e15c8139-a7be-4d15-8161-03af0fa56f89","3","1768025040222","-3.4069502","11.71695","3.63","0.3606625","-0.2657875","0.8569","0.6604750156402588","-2.6983163356781006","2.613930168151855","15.3277454","74.12458","0.10375203","3.814415973336767","0.0"
"e15c8139-a7be-4d15-8161-03af0fa56f89","3","1768025040233","-3.1000502","11.238001","1.50405","0.2300375","-0.2179375","0.768625","-1.184250831604004","-2.692931890487671","1.5702833557128901","15.3277454","74.12458","0.10375203","3.3346846951682267","0.0"
"e15c8139-a7be-4d15-8161-03af0fa56f89","3","1768025040244","-2.028","11.27595","0.33600003","0.169125","-0.12773749","0.48785","-2.2450692653656006","-1.8250489234924316","1.2806095504760737","15.3277454","74.12458","0.10375203","3.1640323007517877","0.0"
"e15c8139-a7be-4d15-8161-03af0fa56f89","3","1768025040255","-2.028","11.27595","0.33600003","0.169125","-0.12773749","0.48785","-2.2450692653656006","-1.8250489234924316","1.2806095504760737","15.3277454","74.12458","0.10375203","3.1640323007517877","0.0"
"e15c8139-a7be-4d15-8161-03af0fa56f89","3","1768025040266","-2.028","11.27595","0.33600003","0.169125","-0.12773749","0.48785","-2.2450692653656006","-1.8250489234924316","1.2806095504760737","15.3277454","74.12458","0.10375203","3.1640323007517877","0.0"
"e15c8139-a7be-4d15-8161-03af0fa56f89","3","1768025040277","-1.5880501","12.081","1.485","0.2723875","-0.120175","0.218625","-1.2430423498153687","-1.491775631904602","2.3105253601074214","15.3277454","74.12458","0.10375203","3.018124626167451","0.0"
"e15c8139-a7be-4d15-8161-03af0fa56f89","3","1768025040288","-1.5880501","12.081","1.485","0.2723875","-0.120175","0.218625","-1.2430423498153687","-1.491775631904602","2.3105253601074214","15.3277454","74.12458","0.10375203","3.018124626167451","0.0"
"e15c8139-a7be-4d15-8161-03af0fa56f89","3","1768025040299","-1.434","12.00405","3.0169501","0.553025","-0.124437496","-0.3388","0.34420251846313477","-1.3952867984771729","2.567005577087402","15.3277454","74.12458","0.10375203","2.94190724811624","0.0"
"e15c8139-a7be-4d15-8161-03af0fa56f89","3","1768025040310","-1.434","12.00405","3.0169501","0.553025","-0.124437496","-0.3388","0.34420251846313477","-1.3952867984771729","2.567005577087402","15.3277454","74.12458","0.10375203","2.94190724811624","0.0"
"e15c8139-a7be-4d15-8161-03af0fa56f89","3","1768025040321","-1.41495","10.72095","3.11295","0.6142125","-0.14355","-0.462","0.8407106399536133","-1.2946618795394897","1.3366760635375972","15.3277454","74.12458","0.10375203","2.041971268480119","0.0"
"e15c8139-a7be-4d15-8161-03af0fa56f89","3","1768025040332","-1.41495","10.72095","3.11295","0.6142125","-0.14355","-0.462","0.8407106399536133","-1.2946618795394897","1.3366760635375972","15.3277454","74.12458","0.10375203","2.041971268480119","0.0"
"e15c8139-a7be-4d15-8161-03af0fa56f89","3","1768025040343","-1.281","9.361951","1.2550501","0.51507497","-0.1441","-0.4235","-0.5641369819641113","-1.040971279144287","-0.35164981842041065","15.3277454","74.12458","0.10375203","1.235123205683537","0.0"
"e15c8139-a7be-4d15-8161-03af0fa56f89","3","1768025040354","-1.281","9.361951","1.2550501","0.51507497","-0.1441","-0.4235","-0.5641369819641113","-1.040971279144287","-0.35164981842041065","15.3277454","74.12458","0.10375203","1.235123205683537","0.0"
"e15c8139-a7be-4d15-8161-03af0fa56f89","3","1768025040365","-1.3770001","8.979","0.087000005","0.3603875","-0.123475","-0.377025","-1.503860354423523","-1.031744360923767","-0.9105601882934575","15.3277454","74.12458","0.10375203","2.0384337733686255","0.0"
"e15c8139-a7be-4d15-8161-03af0fa56f89","3","1768025040376","-1.3770001","8.979","0.087000005","0.3603875","-0.123475","-0.377025","-1.503860354423523","-1.031744360923767","-0.9105601882934575","15.3277454","74.12458","0.10375203","2.0384337733686255","0.0"
"e15c8139-a7be-4d15-8161-03af0fa56f89","3","1768025040387","-1.3770001","8.979","0.087000005","0.3603875","-0.123475","-0.377025","-1.503860354423523","-1.031744360923767","-0.9105601882934575","15.3277454","74.12458","0.10375203","2.0384337733686255","0.0"
"e15c8139-a7be-4d15-8161-03af0fa56f89","3","1768025040398","-1.31895","8.940001","1.04505","0.2358125","-0.073699996","-0.4192375","-0.450555682182312","-0.8978747725486755","-0.7686410522460942","15.3277454","74.12458","0.10375203","1.264906556676851","0.0"
"e15c8139-a7be-4d15-8161-03af0fa56f89","3","1768025040409","-1.31895","8.940001","1.04505","0.2358125","-0.073699996","-0.4192375","-0.450555682182312","-0.8978747725486755","-0.7686410522460942","15.3277454","74.12458","0.10375203","1.264906556676851","0.0"
"e15c8139-a7be-4d15-8161-03af0fa56f89","3","1768025040420","-1.2430501","8.76795","2.079","0.27101249","-0.0334125","-0.54285","0.6397371292114258","-0.755096435546875","-0.7676025009155278","15.3277454","74.12458","0.10375203","1.2524567141738054","0.0"
"e15c8139-a7be-4d15-8161-03af0fa56f89","3","1768025040431","-1.2430501","8.76795","2.079","0.27101249","-0.0334125","-0.54285","0.6397371292114258","-0.755096435546875","-0.7676025009155278","15.3277454","74.12458","0.10375203","1.2524567141738054","0.0"
"e15c8139-a7be-4d15-8161-03af0fa56f89","3","1768025040442","-1.75995","8.80605","2.289","0.45705","-0.0763125","-0.5295125","0.8569506406784058","-1.14584481716156","-0.6537919616699224","15.3277454","74.12458","0.10375203","1.5731397505369142","0.0"
"e15c8139-a7be-4d15-8161-03af0fa56f89","3","1768025040453","-1.75995","8.80605","2.289","0.45705","-0.0763125","-0.5295125","0.8569506406784058","-1.14584481716156","-0.6537919616699224","15.3277454","74.12458","0.10375203","1.5731397505369142","0.0"
"e15c8139-a7be-4d15-8161-03af0fa56f89","3","1768025040463","-2.39205","9.3810005","1.7920501","0.512875","-0.0807125","-0.425425","0.32415974140167236","-1.5513995885849","-0.09276634216308643","15.3277454","74.12458","0.10375203","1.58761639436147","0.0"
"e15c8139-a7be-4d15-8161-03af0fa56f89","3","1768025040474","-2.39205","9.3810005","1.7920501","0.512875","-0.0807125","-0.425425","0.32415974140167236","-1.5513995885849","-0.09276634216308643","15.3277454","74.12458","0.10375203","1.58761639436147","0.0"
"e15c8139-a7be-4d15-8161-03af0fa56f89","3","1768025040485","-2.39205","9.61095","1.5810001","0.3878875","0.03575","-0.3147375","0.180495023727417","-1.385328769683838","0.12177318572997997","15.3277454","74.12458","0.10375203","1.402334825377636","0.0"
"e15c8139-a7be-4d15-8161-03af0fa56f89","3","1768025040496","-2.39205","9.61095","1.5810001","0.3878875","0.03575","-0.3147375","0.180495023727417","-1.385328769683838","0.12177318572997997","15.3277454","74.12458","0.10375203","1.402334825377636","0.0"
"e15c8139-a7be-4d15-8161-03af0fa56f89","3","1768025040507","-2.39205","9.61095","1.5810001","0.3878875","0.03575","-0.3147375","0.180495023727417","-1.385328769683838","0.12177318572997997","15.3277454","74.12458","0.10375203","1.402334825377636","0.0"
"e15c8139-a7be-4d15-8161-03af0fa56f89","3","1768025040518","-2.29605","9.667951","1.2360001","0.24447499","0.117975","-0.2228875","-0.0763322114944458","-1.1573337316513062","0.13603347778320263","15.3277454","74.12458","0.10375203","1.16779839013734","0.0"
"e15c8139-a7be-4d15-8161-03af0fa56f89","3","1768025040529","-2.29605","9.667951","1.2360001","0.24447499","0.117975","-0.2228875","-0.0763322114944458","-1.1573337316513062","0.13603347778320263","15.3277454","74.12458","0.10375203","1.16779839013734","0.0"
"e15c8139-a7be-4d15-8161-03af0fa56f89","3","1768025040539","-2.2770002","10.453051","0.83400005","0.1040875","0.2264625","-0.189475","-0.4925142526626587","-0.9601819515228271","0.8662371063232417","15.3277454","74.12458","0.10375203","1.3837942019958405","0.0"
"e15c8139-a7be-4d15-8161-03af0fa56f89","3","1768025040550","-2.2770002","10.453051","0.83400005","0.1040875","0.2264625","-0.189475","-0.4925142526626587","-0.9601819515228271","0.8662371063232417","15.3277454","74.12458","0.10375203","1.3837942019958405","0.0"
"e15c8139-a7be-4d15-8161-03af0fa56f89","3","1768025040561","-2.526","11.122951","0.93000007","0.0551375","0.2712875","-0.1750375","-0.4329267740249634","-1.0604071617126465","1.5765594863891597","15.3277454","74.12458","0.10375203","1.9486992467804731","0.0"
"e15c8139-a7be-4d15-8161-03af0fa56f89","3","1768025040572","-2.526","11.122951","0.93000007","0.0551375","0.2712875","-0.1750375","-0.4329267740249634","-1.0604071617126465","1.5765594863891597","15.3277454","74.12458","0.10375203","1.9486992467804731","0.0"
"e15c8139-a7be-4d15-8161-03af0fa56f89","3","1768025040583","-2.7169502","11.085001","1.6189501","0.098037496","0.3037375","-0.1654125","0.28383350372314453","-1.1958426237106323","1.6516527557373042","15.3277454","74.12458","0.10375203","2.0587758168517323","0.0"
"e15c8139-a7be-4d15-8161-03af0fa56f89","3","1768025040594","-2.7169502","11.085001","1.6189501","0.098037496","0.3037375","-0.1654125","0.28383350372314453","-1.1958426237106323","1.6516527557373042","15.3277454","74.12458","0.10375203","2.0587758168517323","0.0"
"e15c8139-a7be-4d15-8161-03af0fa56f89","3","1768025040605","-2.94705","11.20005","1.7530501","0.21395","0.36107498","-0.28655","0.44470512866973877","-1.3401210308074951","1.8177990341186518","15.3277454","74.12458","0.10375203","2.301755929094224","0.0"
"e15c8139-a7be-4d15-8161-03af0fa56f89","3","1768025040616","-2.94705","11.20005","1.7530501","0.21395","0.36107498","-0.28655","0.44470512866973877","-1.3401210308074951","1.8177990341186518","15.3277454","74.12458","0.10375203","2.301755929094224","0.0"
"e15c8139-a7be-4d15-8161-03af0fa56f89","3","1768025040627","-2.94705","11.20005","1.7530501","0.21395","0.36107498","-0.28655","0.44470512866973877","-1.3401210308074951","1.8177990341186518","15.3277454","74.12458","0.10375203","2.301755929094224","0.0"
"e15c8139-a7be-4d15-8161-03af0fa56f89","3","1768025040638","-2.8900502","11.410951","1.81095","0.1208625","0.4307875","-0.3377","0.557366132736206","-1.1493141651153564","2.03103775024414","15.3277454","74.12458","0.10375203","2.3993112342863943","0.0"
"e15c8139-a7be-4d15-8161-03af0fa56f89","3","1768025040649","-2.8900502","11.410951","1.81095","0.1208625","0.4307875","-0.3377","0.557366132736206","-1.1493141651153564","2.03103775024414","15.3277454","74.12458","0.10375203","2.3993112342863943","0.0"
"e15c8139-a7be-4d15-8161-03af0fa56f89","3","1768025040660","-2.64105","10.836","2.0400002","0.072875","0.4756125","-0.31625","0.8937760591506958","-0.8637254238128662","1.4599069976806636","15.3277454","74.12458","0.10375203","1.917338179228858","0.0"
"e15c8139-a7be-4d15-8161-03af0fa56f89","3","1768025040671","-2.64105","10.836","2.0400002","0.072875","0.4756125","-0.31625","0.8937760591506958","-0.8637254238128662","1.4599069976806636","15.3277454","74.12458","0.10375203","1.917338179228858","0.0"
"e15c8139-a7be-4d15-8161-03af0fa56f89","3","1768025040682","-2.1430502","9.84","1.81095","0.0499125","0.4929375","-0.2982375","0.7812340259552002","-0.4252890348434448","0.38345855712890575","15.3277454","74.12458","0.10375203","0.9686267761649073","0.0"
"e15c8139-a7be-4d15-8161-03af0fa56f89","3","1768025040693","-2.1430502","9.84","1.81095","0.0499125","0.4929375","-0.2982375","0.7812340259552002","-0.4252890348434448","0.38345855712890575","15.3277454","74.12458","0.10375203","0.9686267761649073","0.0"
"e15c8139-a7be-4d15-8161-03af0fa56f89","3","1768025040704","-1.75995","9.036","1.4470501","0.016224999","0.510675","-0.2597375","0.48466169834136963","-0.10504823178052902","-0.5043683624267583","15.3277454","74.12458","0.10375203","0.7073326924838172","0.0"
"e15c8139-a7be-4d15-8161-03af0fa56f89","3","1768025040715","-1.75995","9.036","1.4470501","0.016224999","0.510675","-0.2597375","0.48466169834136963","-0.10504823178052902","-0.5043683624267583","15.3277454","74.12458","0.10375203","0.7073326924838172","0.0"
"e15c8139-a7be-4d15-8161-03af0fa56f89","3","1768025040727","-1.8940501","9.1699505","1.5810001","-0.0204875","0.52525","-0.1604625","0.608401358127594","-0.12281490117311478","-0.33425479888916065","15.3277454","74.12458","0.10375203","0.7049553057478865","0.0"
"e15c8139-a7be-4d15-8161-03af0fa56f89","3","1768025040738","-1.8940501","9.1699505","1.5810001","-0.0204875","0.52525","-0.1604625","0.608401358127594","-0.12281490117311478","-0.33425479888916065","15.3277454","74.12458","0.10375203","0.7049553057478865","0.0"
"e15c8139-a7be-4d15-8161-03af0fa56f89","3","1768025040749","-1.60695","8.634001","2.19405","-0.0397375","0.527175","-0.1106875","1.2498407363891602","0.16903410851955414","-0.8461032485961919","15.3277454","74.12458","0.10375203","1.5187379969783557","0.0"
"e15c8139-a7be-4d15-8161-03af0fa56f89","3","1768025040760","-1.60695","8.634001","2.19405","-0.0397375","0.527175","-0.1106875","1.2498407363891602","0.16903410851955414","-0.8461032485961919","15.3277454","74.12458","0.10375203","1.5187379969783557","0.0"
"e15c8139-a7be-4d15-8161-03af0fa56f89","3","1768025040771","-1.60695","8.634001","2.19405","-0.0397375","0.527175","-0.1106875","1.2498407363891602","0.16903410851955414","-0.8461032485961919","15.3277454","74.12458","0.10375203","1.5187379969783557","0.0"
"e15c8139-a7be-4d15-8161-03af0fa56f89","3","1768025040782","-1.31895","8.404051","2.02095","-0.076175","0.5071","0.0037125","1.073287010192871","0.44179171323776245","-1.1436963653564458","15.3277454","74.12458","0.10375203","1.629468103481579","0.0"
"e15c8139-a7be-4d15-8161-03af0fa56f89","3","1768025040793","-1.31895","8.404051","2.02095","-0.076175","0.5071","0.0037125","1.073287010192871","0.44179171323776245","-1.1436963653564458","15.3277454","74.12458","0.10375203","1.629468103481579","0.0"
"e15c8139-a7be-4d15-8161-03af0fa56f89","3","1768025040803","-1.31895","8.404051","2.02095","-0.076175","0.5071","0.0037125","1.073287010192871","0.44179171323776245","-1.1436963653564458","15.3277454","74.12458","0.10375203","1.629468103481579","0.0"
"e15c8139-a7be-4d15-8161-03af0fa56f89","3","1768025040814","-1.281","8.17395","1.7530501","-0.12705","0.50105","0.0677875","0.8223692178726196","0.4303271770477295","-1.4036841964721685","15.3277454","74.12458","0.10375203","1.682795867963791","0.0"
"e15c8139-a7be-4d15-8161-03af0fa56f89","3","1768025040825","-1.30005","8.212951","2.05995","-0.2589125","0.50435","0.106425","1.1008836030960083","0.461495578289032","-1.3270059204101567","15.3277454","74.12458","0.10375203","1.7848998821081212","0.0"
"e15c8139-a7be-4d15-8161-03af0fa56f89","3","1768025040837","-1.30005","8.212951","2.05995","-0.2589125","0.50435","0.106425","1.1008836030960083","0.461495578289032","-1.3270059204101567","15.3277454","74.12458","0.10375203","1.7848998821081212","0.0"
"e15c8139-a7be-4d15-8161-03af0fa56f89","3","1768025040847","-1.3579501","8.17395","2.2699502","-0.3939375","0.471625","0.15675","1.2677940130233765","0.42543816566467285","-1.3234296417236333","15.3277454","74.12458","0.10375203","1.881426402720761","0.0"
"e15c8139-a7be-4d15-8161-03af0fa56f89","3","1768025040858","-1.3579501","8.17395","2.2699502","-0.3939375","0.471625","0.15675","1.2677940130233765","0.42543816566467285","-1.3234296417236333","15.3277454","74.12458","0.10375203","1.881426402720761","0.0"
"e15c8139-a7be-4d15-8161-03af0fa56f89","3","1768025040869","-1.281","8.328","2.3850002","-0.42295","0.4129125","0.2033625","1.2723459005355835","0.5293065309524536","-1.1621242141723638","15.3277454","74.12458","0.10375203","1.80265420518866","0.0"
"e15c8139-a7be-4d15-8161-03af0fa56f89","3","1768025040880","-1.281","8.328","2.3850002","-0.42295","0.4129125","0.2033625","1.2723459005355835","0.5293065309524536","-1.1621242141723638","15.3277454","74.12458","0.10375203","1.80265420518866","0.0"
"e15c8139-a7be-4d15-8161-03af0fa56f89","3","1768025040892","-1.281","8.328","2.3850002","-0.42295","0.4129125","0.2033625","1.2723459005355835","0.5293065309524536","-1.1621242141723638","15.3277454","74.12458","0.10375203","1.80265420518866","0.0"
"e15c8139-a7be-4d15-8161-03af0fa56f89","3","1768025040902","-1.3770001","8.25105","2.21295","-0.4453625","0.3106125","0.2960375","1.045729160308838","0.36762741208076477","-1.2283673858642583","15.3277454","74.12458","0.10375203","1.654565146945994","0.0"
"e15c8139-a7be-4d15-8161-03af0fa56f89","3","1768025040913","-1.3770001","8.25105","2.21295","-0.4453625","0.3106125","0.2960375","1.045729160308838","0.36762741208076477","-1.2283673858642583","15.3277454","74.12458","0.10375203","1.654565146945994","0.0"
"e15c8139-a7be-4d15-8161-03af0fa56f89","3","1768025040924","-1.3770001","8.365951","3.11295","-0.4412375","0.251075","0.3344","1.8068569898605347","0.4789484739303589","-0.973619995117188","15.3277454","74.12458","0.10375203","2.107619443206027","0.0"
