"session_id","window_id","timestamp","accel_x","accel_y","accel_z","gyro_x","gyro_y","gyro_z","linear_accel_x","linear_accel_y","linear_accel_z","latitude","longitude","speed","vibration_intensity","anomaly_score"
"4632034c-4bb9-470f-b1c7-c14a0bac6ee5","1","1768025051737","0.01995","5.9149504","6.9040504","0.224675","0.0969375","0.4437125","0.8960576057434082","-0.11062431335449219","-0.7635751342773442","15.3277559","74.1245893","0.073925704","1.182456746440404","0.0"
"4632034c-4bb9-470f-b1c7-c14a0bac6ee5","1","1768025051748","-0.16995001","6.20205","6.71295","0.2369125","0.1596375","0.4324375","1.2529313564300537","-0.0027234554290771484","-0.7552686309814458","15.3277559","74.1245893","0.073925704","1.4629679101332727","0.0"
"4632034c-4bb9-470f-b1c7-c14a0bac6ee5","1","1768025051759","-0.16995001","6.20205","6.71295","0.2369125","0.1596375","0.4324375","1.2529313564300537","-0.0027234554290771484","-0.7552686309814458","15.3277559","74.1245893","0.073925704","1.4629679101332727","0.0"
"4632034c-4bb9-470f-b1c7-c14a0bac6ee5","1","1768025051769","-0.61095005","6.7189503","7.326","0.25685","0.29755","0.391325","1.4222891330718994","0.46284592151641846","0.03635448455810497","15.3277559","74.1245893","0.073925704","1.4961465080887912","0.0"
"4632034c-4bb9-470f-b1c7-c14a0bac6ee5","1","1768025051780","-0.61095005","6.7189503","7.326","0.25685","0.29755","0.391325","1.4222891330718994","0.46284592151641846","0.03635448455810497","15.3277559","74.1245893","0.073925704","1.4961465080887912","0.0"
"4632034c-4bb9-470f-b1c7-c14a0bac6ee5","1","1768025051790","-0.61095005","6.7189503","7.326","0.25685","0.29755","0.391325","1.4222891330718994","0.46284592151641846","0.03635448455810497","15.3277559","74.1245893","0.073925704","1.4961465080887912","0.0"
"4632034c-4bb9-470f-b1c7-c14a0bac6ee5","1","1768025051801","-0.84105","6.4129505","8.379001","0.267025","0.4114","0.3383875","0.631248950958252","1.039115071296692","0.7048811340332026","15.3277559","74.1245893","0.073925704","1.4053799424346984","0.0"
"4632034c-4bb9-470f-b1c7-c14a0bac6ee5","1","1768025051812","-1.0129501","6.2980504","8.51295","0.2607","0.5493125","0.284075","0.4412088394165039","1.2496917247772217","0.7448763275146479","15.3277559","74.1245893","0.073925704","1.5202747745876843","0.0"
"4632034c-4bb9-470f-b1c7-c14a0bac6ee5","1","1768025051822","-1.0129501","6.2980504","8.51295","0.2607","0.5493125","0.284075","0.4412088394165039","1.2496917247772217","0.7448763275146479","15.3277559","74.1245893","0.073925704","1.5202747745876843","0.0"
"4632034c-4bb9-470f-b1c7-c14a0bac6ee5","1","1768025051833","-1.0129501","6.2980504","8.51295","0.2607","0.5493125","0.284075","0.4412088394165039","1.2496917247772217","0.7448763275146479","15.3277559","74.1245893","0.073925704","1.5202747745876843","0.0"
"4632034c-4bb9-470f-b1c7-c14a0bac6ee5","1","1768025051844","-1.1659501","6.393","8.45505","0.2462625","0.60885","0.2649625","0.49350500106811523","1.3087369203567505","0.7617277526855464","15.3277559","74.1245893","0.073925704","1.592660881040118","0.0"
"4632034c-4bb9-470f-b1c7-c14a0bac6ee5","1","1768025051854","-1.1659501","6.393","8.45505","0.2462625","0.60885","0.2649625","0.49350500106811523","1.3087369203567505","0.7617277526855464","15.3277559","74.1245893","0.073925704","1.592660881040118","0.0"
"4632034c-4bb9-470f-b1c7-c14a0bac6ee5","1","1768025051865","-1.41495","6.46995","8.608951","0.2325125","0.670175","0.249975","0.43482446670532227","1.491843819618225","0.9399628067016597","15.3277559","74.1245893","0.073925704","1.8160948149700569","0.0"
"4632034c-4bb9-470f-b1c7-c14a0bac6ee5","1","1768025051875","-1.41495","6.46995","8.608951","0.2325125","0.670175","0.249975","0.43482446670532227","1.491843819618225","0.9399628067016597","15.3277559","74.1245893","0.073925704","1.8160948149700569","0.0"
"4632034c-4bb9-470f-b1c7-c14a0bac6ee5","1","1768025051886","-1.49205","6.4129505","8.85795","0.1918125","0.771375","0.19085","0.15907621383666992","1.545462727546692","1.1171078109741206","15.3277559","74.1245893","0.073925704","1.9135543225589553","0.0"
"4632034c-4bb9-470f-b1c7-c14a0bac6ee5","1","1768025051897","-1.49205","6.4129505","8.85795","0.1918125","0.771375","0.19085","0.15907621383666992","1.545462727546692","1.1171078109741206","15.3277559","74.1245893","0.073925704","1.9135543225589553","0.0"
"4632034c-4bb9-470f-b1c7-c14a0bac6ee5","1","1768025051907","-1.26195","6.2980504","8.56995","0.1370875","0.8036875","0.136125","0.06421613693237305","1.1846617460250854","0.8339867019653315","15.3277559","74.1245893","0.073925704","1.4502003254008502","0.0"
"4632034c-4bb9-470f-b1c7-c14a0bac6ee5","1","1768025051918","-1.26195","6.2980504","8.56995","0.1370875","0.8036875","0.136125","0.06421613693237305","1.1846617460250854","0.8339867019653315","15.3277559","74.1245893","0.073925704","1.4502003254008502","0.0"
"4632034c-4bb9-470f-b1c7-c14a0bac6ee5","1","1768025051929","-1.26195","6.2980504","8.56995","0.1370875","0.8036875","0.136125","0.06421613693237305","1.1846617460250854","0.8339867019653315","15.3277559","74.1245893","0.073925704","1.4502003254008502","0.0"
"4632034c-4bb9-470f-b1c7-c14a0bac6ee5","1","1768025051939","-1.281","6.20205","7.9189506","0.0603625","0.8459","0.0644875","0.28968048095703125","0.9871523380279541","0.2775062942504878","15.3277559","74.1245893","0.073925704","1.0655488083003009","0.0"
"4632034c-4bb9-470f-b1c7-c14a0bac6ee5","1","1768025051950","-1.281","6.20205","7.9189506","0.0603625","0.8459","0.0644875","0.28968048095703125","0.9871523380279541","0.2775062942504878","15.3277559","74.1245893","0.073925704","1.0655488083003009","0.0"
"4632034c-4bb9-470f-b1c7-c14a0bac6ee5","1","1768025051960","-1.2240001","6.432","7.8040504","0.0413875","0.8210125","0.064899996","0.4388446807861328","0.7157402038574219","0.34219879150390575","15.3277559","74.1245893","0.073925704","0.9066248982787094","0.0"
"4632034c-4bb9-470f-b1c7-c14a0bac6ee5","1","1768025051971","-1.2240001","6.432","7.8040504","0.0413875","0.8210125","0.064899996","0.4388446807861328","0.7157402038574219","0.34219879150390575","15.3277559","74.1245893","0.073925704","0.9066248982787094","0.0"
"4632034c-4bb9-470f-b1c7-c14a0bac6ee5","1","1768025051981","-1.5490501","6.4890003","7.4790006","0.022824999","0.7855375","0.062975","0.6813201904296875","0.8317358493804932","0.15424293518066357","15.3277559","74.1245893","0.073925704","1.0861733784644985","0.0"
"4632034c-4bb9-470f-b1c7-c14a0bac6ee5","1","1768025051992","-1.5490501","6.4890003","7.4790006","0.022824999","0.7855375","0.062975","0.6813201904296875","0.8317358493804932","0.15424293518066357","15.3277559","74.1245893","0.073925704","1.0861733784644985","0.0"
"4632034c-4bb9-470f-b1c7-c14a0bac6ee5","1","1768025052002","-1.6830001","6.5850005","7.24905","-0.0122375","0.733975","0.028875","0.8432936668395996","0.772828996181488","0.06091922760009716","15.3277559","74.1245893","0.073925704","1.1454780740642994","0.0"
"4632034c-4bb9-470f-b1c7-c14a0bac6ee5","1","1768025052013","-1.6830001","6.5850005","7.24905","-0.0122375","0.733975","0.028875","0.8432936668395996","0.772828996181488","0.06091922760009716","15.3277559","74.1245893","0.073925704","1.1454780740642994","0.0"
"4632034c-4bb9-470f-b1c7-c14a0bac6ee5","1","1768025052024","-1.6830001","6.5850005","7.24905","-0.0122375","0.733975","0.028875","0.8432936668395996","0.772828996181488","0.06091922760009716","15.3277559","74.1245893","0.073925704","1.1454780740642994","0.0"
"4632034c-4bb9-470f-b1c7-c14a0bac6ee5","1","1768025052034","-1.5490501","6.66195","7.2679505","-0.0231","0.688875","0.007425","0.7891860008239746","0.49425208568573","0.12665695190429638","15.3277559","74.1245893","0.073925704","0.9397561660169726","0.0"
"4632034c-4bb9-470f-b1c7-c14a0bac6ee5","1","1768025052045","-1.5490501","6.66195","7.2679505","-0.0231","0.688875","0.007425","0.7891860008239746","0.49425208568573","0.12665695190429638","15.3277559","74.1245893","0.073925704","0.9397561660169726","0.0"
"4632034c-4bb9-470f-b1c7-c14a0bac6ee5","1","1768025052055","-1.434","7.04505","7.2679505","0.0022","0.5995","-0.00935","0.9856605529785156","0.17007121443748474","0.3640722656249995","15.3277559","74.1245893","0.073925704","1.0644245197643065","0.0"
"4632034c-4bb9-470f-b1c7-c14a0bac6ee5","1","1768025052066","-1.434","7.04505","7.2679505","0.0022","0.5995","-0.00935","0.9856605529785156","0.17007121443748474","0.3640722656249995","15.3277559","74.1245893","0.073925704","1.0644245197643065","0.0"
"4632034c-4bb9-470f-b1c7-c14a0bac6ee5","1","1768025052076","-2.25795","7.0639505","6.1380005","0.0595375","0.521125","-0.0279125","1.796989917755127","0.8044750690460205","-0.3868136978149419","15.3277559","74.1245893","0.073925704","2.0064839241936245","0.0"
"4632034c-4bb9-470f-b1c7-c14a0bac6ee5","1","1768025052087","-2.25795","7.0639505","6.1380005","0.0595375","0.521125","-0.0279125","1.796989917755127","0.8044750690460205","-0.3868136978149419","15.3277559","74.1245893","0.073925704","2.0064839241936245","0.0"
"4632034c-4bb9-470f-b1c7-c14a0bac6ee5","1","1768025052097","-2.25795","7.0639505","6.1380005","0.0595375","0.521125","-0.0279125","1.796989917755127","0.8044750690460205","-0.3868136978149419","15.3277559","74.1245893","0.073925704","2.0064839241936245","0.0"
"4632034c-4bb9-470f-b1c7-c14a0bac6ee5","1","1768025052108","-2.16195","7.4470506","6.2530503","0.202125","0.5091625","-0.032175","1.8884353637695312","0.5306180715560913","-0.043449935913086435","15.3277559","74.1245893","0.073925704","1.9620477970549337","0.0"
"4632034c-4bb9-470f-b1c7-c14a0bac6ee5","1","1768025052119","-2.16195","7.4470506","6.2530503","0.202125","0.5091625","-0.032175","1.8884353637695312","0.5306180715560913","-0.043449935913086435","15.3277559","74.1245893","0.073925704","1.9620477970549337","0.0"
"4632034c-4bb9-470f-b1c7-c14a0bac6ee5","1","1768025052129","-2.3149502","7.7719502","5.5260005","0.4103","0.50325","-0.0108624995","2.4118666648864746","0.4913308322429657","-0.3105054473876958","15.3277559","74.1245893","0.073925704","2.4809112093665515","0.0"
"4632034c-4bb9-470f-b1c7-c14a0bac6ee5","1","1768025052140","-2.3149502","7.7719502","5.5260005","0.4103","0.50325","-0.0108624995","2.4118666648864746","0.4913308322429657","-0.3105054473876958","15.3277559","74.1245893","0.073925704","2.4809112093665515","0.0"
"4632034c-4bb9-470f-b1c7-c14a0bac6ee5","1","1768025052150","-2.00895","7.4659505","5.79405","0.5567375","0.5212625","0.01155","1.7589902877807617","0.2028774619102478","-0.31199413299560597","15.3277559","74.1245893","0.073925704","1.7979283734570382","0.0"
"4632034c-4bb9-470f-b1c7-c14a0bac6ee5","1","1768025052161","-2.00895","7.4659505","5.79405","0.5567375","0.5212625","0.01155","1.7589902877807617","0.2028774619102478","-0.31199413299560597","15.3277559","74.1245893","0.073925704","1.7979283734570382","0.0"
"4632034c-4bb9-470f-b1c7-c14a0bac6ee5","1","1768025052171","-2.028","7.25505","6.4830003","0.7137625","0.55","0.020624999","0.9335412979125977","0.21241988241672516","0.08248275756835888","15.3277559","74.1245893","0.073925704","0.960950033378611","0.0"
"4632034c-4bb9-470f-b1c7-c14a0bac6ee5","1","1768025052182","-2.028","7.25505","6.4830003","0.7137625","0.55","0.020624999","0.9335412979125977","0.21241988241672516","0.08248275756835888","15.3277559","74.1245893","0.073925704","0.960950033378611","0.0"
"4632034c-4bb9-470f-b1c7-c14a0bac6ee5","1","1768025052192","-2.028","7.25505","6.4830003","0.7137625","0.55","0.020624999","0.9335412979125977","0.21241988241672516","0.08248275756835888","15.3277559","74.1245893","0.073925704","0.960950033378611","0.0"
"4632034c-4bb9-470f-b1c7-c14a0bac6ee5","1","1768025052203","-2.1049502","6.9679503","6.6940503","0.738925","0.5352875","0.001925","0.3891448974609375","0.29037848114967346","0.06713050842285107","15.3277559","74.1245893","0.073925704","0.490163155179768","0.0"
"4632034c-4bb9-470f-b1c7-c14a0bac6ee5","1","1768025052213","-2.1049502","6.9679503","6.6940503","0.738925","0.5352875","0.001925","0.3891448974609375","0.29037848114967346","0.06713050842285107","15.3277559","74.1245893","0.073925704","0.490163155179768","0.0"
"4632034c-4bb9-470f-b1c7-c14a0bac6ee5","1","1768025052224","-1.95105","7.083","6.4830003","0.7112875","0.49568748","-0.0479875","0.3736252784729004","0.054730191826820374","-0.019075927734375497","15.3277559","74.1245893","0.073925704","0.3780940803957132","0.0"
"4632034c-4bb9-470f-b1c7-c14a0bac6ee5","1","1768025052234","-1.95105","7.083","6.4830003","0.7112875","0.49568748","-0.0479875","0.3736252784729004","0.054730191826820374","-0.019075927734375497","15.3277559","74.1245893","0.073925704","0.3780940803957132","0.0"
"4632034c-4bb9-470f-b1c7-c14a0bac6ee5","1","1768025052245","-1.8940501","7.04505","6.6169505","0.658625","0.418825","-0.09185","0.046291351318359375","-0.05331513285636902","0.038817825317382315","15.3277559","74.1245893","0.073925704","0.08057428970051711","0.0"
"4632034c-4bb9-470f-b1c7-c14a0bac6ee5","1","1768025052256","-1.8940501","7.04505","6.6169505","0.658625","0.418825","-0.09185","0.046291351318359375","-0.05331513285636902","0.038817825317382315","15.3277559","74.1245893","0.073925704","0.08057428970051711","0.0"
"4632034c-4bb9-470f-b1c7-c14a0bac6ee5","1","1768025052266","-1.8940501","7.04505","6.6169505","0.658625","0.418825","-0.09185","0.046291351318359375","-0.05331513285636902","0.038817825317382315","15.3277559","74.1245893","0.073925704","0.08057428970051711","0.0"
"4632034c-4bb9-470f-b1c7-c14a0bac6ee5","1","1768025052277","-2.124","6.7759504","6.7699504","0.6062375","0.36107498","-0.0939125","-0.3702073097229004","0.17010188102722168","-0.007391510009766122","15.3277559","74.1245893","0.073925704","0.4074834187074255","0.0"
"4632034c-4bb9-470f-b1c7-c14a0bac6ee5","1","1768025052288","-2.124","6.7759504","6.7699504","0.6062375","0.36107498","-0.0939125","-0.3702073097229004","0.17010188102722168","-0.007391510009766122","15.3277559","74.1245893","0.073925704","0.4074834187074255","0.0"
"4632034c-4bb9-470f-b1c7-c14a0bac6ee5","1","1768025052299","-2.4109502","6.834","6.59805","0.5102625","0.2987875","-0.1181125","-0.3107280731201172","0.37554627656936646","-0.021591720581055185","15.3277559","74.1245893","0.073925704","0.4879069006149701","0.0"
"4632034c-4bb9-470f-b1c7-c14a0bac6ee5","1","1768025052309","-2.4109502","6.834","6.59805","0.5102625","0.2987875","-0.1181125","-0.3107280731201172","0.37554627656936646","-0.021591720581055185","15.3277559","74.1245893","0.073925704","0.4879069006149701","0.0"
"4632034c-4bb9-470f-b1c7-c14a0bac6ee5","1","1768025052320","-2.7940502","6.4510503","6.0430503","0.452375","0.28325","-0.1599125","-0.19845104217529297","0.8068592548370361","-0.5768628692626958","15.3277559","74.1245893","0.073925704","1.0115213508328074","0.0"
"4632034c-4bb9-470f-b1c7-c14a0bac6ee5","1","1768025052331","-2.7940502","6.4510503","6.0430503","0.452375","0.28325","-0.1599125","-0.19845104217529297","0.8068592548370361","-0.5768628692626958","15.3277559","74.1245893","0.073925704","1.0115213508328074","0.0"
"4632034c-4bb9-470f-b1c7-c14a0bac6ee5","1","1768025052342","-2.00895","6.393","6.4830003","0.3859625","0.2391125","-0.2063875","-0.7818007469177246","-0.011813312768936157","-0.5189138031005864","15.3277559","74.1245893","0.073925704","0.938415418291922","0.0"
"4632034c-4bb9-470f-b1c7-c14a0bac6ee5","1","1768025052353","-2.00895","6.393","6.4830003","0.3859625","0.2391125","-0.2063875","-0.7818007469177246","-0.011813312768936157","-0.5189138031005864","15.3277559","74.1245893","0.073925704","0.938415418291922","0.0"
"4632034c-4bb9-470f-b1c7-c14a0bac6ee5","1","1768025052364","-1.95105","6.5850005","5.94705","0.241725","0.0988625","-0.2473625","-0.34202098846435547","-0.14760670065879822","-0.7326951599121099","15.3277559","74.1245893","0.073925704","0.821953947607859","0.0"
"4632034c-4bb9-470f-b1c7-c14a0bac6ee5","1","1768025052374","-1.95105","6.5850005","5.94705","0.241725","0.0988625","-0.2473625","-0.34202098846435547","-0.14760670065879822","-0.7326951599121099","15.3277559","74.1245893","0.073925704","0.821953947607859","0.0"
"4632034c-4bb9-470f-b1c7-c14a0bac6ee5","1","1768025052385","-1.95105","6.5850005","5.94705","0.241725","0.0988625","-0.2473625","-0.34202098846435547","-0.14760670065879822","-0.7326951599121099","15.3277559","74.1245893","0.073925704","0.821953947607859","0.0"
"4632034c-4bb9-470f-b1c7-c14a0bac6ee5","1","1768025052396","-2.736","7.52295","4.96995","0.122375","0.0015125","-0.2858625","1.0328433513641357","0.3422643542289734","-0.4506745910644536","15.3277559","74.1245893","0.073925704","1.1777172256802515","0.0"
"4632034c-4bb9-470f-b1c7-c14a0bac6ee5","1","1768025052406","-2.736","7.52295","4.96995","0.122375","0.0015125","-0.2858625","1.0328433513641357","0.3422643542289734","-0.4506745910644536","15.3277559","74.1245893","0.073925704","1.1777172256802515","0.0"
"4632034c-4bb9-470f-b1c7-c14a0bac6ee5","1","1768025052417","-3.1000502","8.02095","4.10895","0.087037496","-0.045925","-0.2811875","1.9966626167297363","0.5237295031547546","-0.5057826614379888","15.3277559","74.1245893","0.073925704","2.1252694648284156","0.0"
"4632034c-4bb9-470f-b1c7-c14a0bac6ee5","1","1768025052428","-3.1000502","8.02095","4.10895","0.087037496","-0.045925","-0.2811875","1.9966626167297363","0.5237295031547546","-0.5057826614379888","15.3277559","74.1245893","0.073925704","2.1252694648284156","0.0"
"4632034c-4bb9-470f-b1c7-c14a0bac6ee5","1","1768025052439","-2.8900502","7.8300004","4.089","0.1505625","-0.0048125","-0.2662","1.8222546577453613","0.32060444355010986","-0.7018809890747075","15.3277559","74.1245893","0.073925704","1.9788977158315255","0.0"
"4632034c-4bb9-470f-b1c7-c14a0bac6ee5","1","1768025052450","-2.8900502","7.8300004","4.089","0.1505625","-0.0048125","-0.2662","1.8222546577453613","0.32060444355010986","-0.7018809890747075","15.3277559","74.1245893","0.073925704","1.9788977158315255","0.0"
"4632034c-4bb9-470f-b1c7-c14a0bac6ee5","1","1768025052461","-2.8510501","7.5040503","4.72095","0.3007125","0.11935","-0.24365","1.0733551979064941","0.3000425100326538","-0.5642161941528325","15.3277559","74.1245893","0.073925704","1.2491824536247262","0.0"
"4632034c-4bb9-470f-b1c7-c14a0bac6ee5","1","1768025052471","-2.8510501","7.5040503","4.72095","0.3007125","0.11935","-0.24365","1.0733551979064941","0.3000425100326538","-0.5642161941528325","15.3277559","74.1245893","0.073925704","1.2491824536247262","0.0"
"4632034c-4bb9-470f-b1c7-c14a0bac6ee5","1","1768025052482","-2.8510501","7.5040503","4.72095","0.3007125","0.11935","-0.24365","1.0733551979064941","0.3000425100326538","-0.5642161941528325","15.3277559","74.1245893","0.073925704","1.2491824536247262","0.0"
"4632034c-4bb9-470f-b1c7-c14a0bac6ee5","1","1768025052493","-3.0619502","7.25505","5.6599503","0.4769875","0.2803625","-0.235125","0.12990617752075195","0.47672128677368164","-0.12484699249267628","15.3277559","74.1245893","0.073925704","0.5096327812804767","0.0"
"4632034c-4bb9-470f-b1c7-c14a0bac6ee5","1","1768025052503","-3.0619502","7.25505","5.6599503","0.4769875","0.2803625","-0.235125","0.12990617752075195","0.47672128677368164","-0.12484699249267628","15.3277559","74.1245893","0.073925704","0.5096327812804767","0.0"
"4632034c-4bb9-470f-b1c7-c14a0bac6ee5","1","1768025052514","-3.0240002","6.66195","5.8510504","0.491425","0.301125","-0.251075","-0.480989933013916","0.5379678010940552","-0.46975475311279347","15.3277559","74.1245893","0.073925704","0.8610634115712767","0.0"
"4632034c-4bb9-470f-b1c7-c14a0bac6ee5","1","1768025052525","-3.0240002","6.66195","5.8510504","0.491425","0.301125","-0.251075","-0.480989933013916","0.5379678010940552","-0.46975475311279347","15.3277559","74.1245893","0.073925704","0.8610634115712767","0.0"
"4632034c-4bb9-470f-b1c7-c14a0bac6ee5","1","1768025052536","-2.871","5.95305","5.8510504","0.4637875","0.30621248","-0.29755","-1.0102145671844482","0.5494818687438965","-1.0582128143310552","15.3277559","74.1245893","0.073925704","1.5627789850917497","0.0"
"4632034c-4bb9-470f-b1c7-c14a0bac6ee5","1","1768025052547","-2.871","5.95305","5.8510504","0.4637875","0.30621248","-0.29755","-1.0102145671844482","0.5494818687438965","-1.0582128143310552","15.3277559","74.1245893","0.073925704","1.5627789850917497","0.0"
"4632034c-4bb9-470f-b1c7-c14a0bac6ee5","1","1768025052558","-3.2920501","5.8759503","4.9510503","0.42625","0.2759625","-0.312125","-0.3512096405029297","0.9430646896362305","-1.511532363891602","15.3277559","74.1245893","0.073925704","1.8158880217438","0.0"
"4632034c-4bb9-470f-b1c7-c14a0bac6ee5","1","1768025052569","-3.2920501","5.8759503","4.9510503","0.42625","0.2759625","-0.312125","-0.3512096405029297","0.9430646896362305","-1.511532363891602","15.3277559","74.1245893","0.073925704","1.8158880217438","0.0"
"4632034c-4bb9-470f-b1c7-c14a0bac6ee5","1","1768025052579","-4.4599504","7.00605","3.7060502","0.4090625","0.256025","-0.3025","1.358036994934082","1.63927161693573","-0.9680972671508794","15.3277559","74.1245893","0.073925704","2.3385226602206948","0.0"
"4632034c-4bb9-470f-b1c7-c14a0bac6ee5","1","1768025052590","-4.4599504","7.00605","3.7060502","0.4090625","0.256025","-0.3025","1.358036994934082","1.63927161693573","-0.9680972671508794","15.3277559","74.1245893","0.073925704","2.3385226602206948","0.0"
"4632034c-4bb9-470f-b1c7-c14a0bac6ee5","1","1768025052601","-4.4599504","7.00605","3.7060502","0.4090625","0.256025","-0.3025","1.358036994934082","1.63927161693573","-0.9680972671508794","15.3277559","74.1245893","0.073925704","2.3385226602206948","0.0"
"4632034c-4bb9-470f-b1c7-c14a0bac6ee5","1","1768025052612","-4.671","6.0679502","2.6530502","0.5143875","0.4312","-0.3741375","1.6742398738861084","2.1321990489959717","-2.172749576568604","15.3277559","74.1245893","0.073925704","3.47421828075447","0.0"
"4632034c-4bb9-470f-b1c7-c14a0bac6ee5","1","1768025052623","-4.671","6.0679502","2.6530502","0.5143875","0.4312","-0.3741375","1.6742398738861084","2.1321990489959717","-2.172749576568604","15.3277559","74.1245893","0.073925704","3.47421828075447","0.0"
"4632034c-4bb9-470f-b1c7-c14a0bac6ee5","1","1768025052634","-3.9049501","6.5850005","2.36595","0.60775","0.583","-0.4459125","1.9558300971984863","1.156421184539795","-2.1258597946166997","15.3277559","74.1245893","0.073925704","3.111568927651711","0.0"
"4632034c-4bb9-470f-b1c7-c14a0bac6ee5","1","1768025052645","-3.9049501","6.5850005","2.36595","0.60775","0.583","-0.4459125","1.9558300971984863","1.156421184539795","-2.1258597946166997","15.3277559","74.1245893","0.073925704","3.111568927651711","0.0"
"4632034c-4bb9-470f-b1c7-c14a0bac6ee5","1","1768025052656","-3.2340002","6.9679503","3.1890001","0.6829625","0.6788375","-0.49568748","1.2043612003326416","0.22849559783935547","-1.5833287811279302","15.3277559","74.1245893","0.073925704","2.0024050959400554","0.0"
"4632034c-4bb9-470f-b1c7-c14a0bac6ee5","1","1768025052667","-3.2340002","6.9679503","3.1890001","0.6829625","0.6788375","-0.49568748","1.2043612003326416","0.22849559783935547","-1.5833287811279302","15.3277559","74.1245893","0.073925704","2.0024050959400554","0.0"
"4632034c-4bb9-470f-b1c7-c14a0bac6ee5","1","1768025052677","-2.8900502","7.293","5.10405","0.61765","0.6098125","-0.4818","-0.5036969184875488","-0.47384998202323914","-0.4765477752685552","15.3277559","74.1245893","0.073925704","0.8398465176868246","0.0"
"4632034c-4bb9-470f-b1c7-c14a0bac6ee5","1","1768025052688","-2.8900502","7.293","5.10405","0.61765","0.6098125","-0.4818","-0.5036969184875488","-0.47384998202323914","-0.4765477752685552","15.3277559","74.1245893","0.073925704","0.8398465176868246","0.0"
"4632034c-4bb9-470f-b1c7-c14a0bac6ee5","1","1768025052699","-2.8900502","7.293","5.10405","0.61765","0.6098125","-0.4818","-0.5036969184875488","-0.47384998202323914","-0.4765477752685552","15.3277559","74.1245893","0.073925704","0.8398465176868246","0.0"
"4632034c-4bb9-470f-b1c7-c14a0bac6ee5","1","1768025052709","-2.6790001","7.6000504","5.8699503","0.38665","0.3856875","-0.456775","-1.1683306694030762","-0.9568623304367065","0.04461997985839794","15.3277559","74.1245893","0.073925704","1.5108186572448623","0.0"
"4632034c-4bb9-470f-b1c7-c14a0bac6ee5","1","1768025052720","-2.6790001","7.6000504","5.8699503","0.38665","0.3856875","-0.456775","-1.1683306694030762","-0.9568623304367065","0.04461997985839794","15.3277559","74.1245893","0.073925704","1.5108186572448623","0.0"
"4632034c-4bb9-470f-b1c7-c14a0bac6ee5","1","1768025052731","-2.4490502","8.193001","5.41095","0.3009875","0.275275","-0.3964125","-0.6007790565490723","-1.4569096565246582","0.18589824676513622","15.3277559","74.1245893","0.073925704","1.5868457329599315","0.0"
"4632034c-4bb9-470f-b1c7-c14a0bac6ee5","1","1768025052741","-2.4490502","8.193001","5.41095","0.3009875","0.275275","-0.3964125","-0.6007790565490723","-1.4569096565246582","0.18589824676513622","15.3277559","74.1245893","0.073925704","1.5868457329599315","0.0"
"4632034c-4bb9-470f-b1c7-c14a0bac6ee5","1","1768025052752","-2.124","9.11295","4.20405","0.235125","0.163625","-0.3267","0.7479758262634277","-2.0828757286071777","0.20665782928466747","15.3277559","74.1245893","0.073925704","2.2227340362490495","0.0"
"4632034c-4bb9-470f-b1c7-c14a0bac6ee5","1","1768025052763","-2.124","9.11295","4.20405","0.235125","0.163625","-0.3267","0.7479758262634277","-2.0828757286071777","0.20665782928466747","15.3277559","74.1245893","0.073925704","2.2227340362490495","0.0"
"4632034c-4bb9-470f-b1c7-c14a0bac6ee5","1","1768025052773","-1.79805","10.471951","2.94","0.2949375","0.1233375","-0.1491875","2.3391356468200684","-2.8789024353027344","0.5716528320312495","15.3277559","74.1245893","0.073925704","3.7531882135839796","0.0"
"4632034c-4bb9-470f-b1c7-c14a0bac6ee5","1","1768025052784","-1.79805","10.471951","2.94","0.2949375","0.1233375","-0.1491875","2.3391356468200684","-2.8789024353027344","0.5716528320312495","15.3277559","74.1245893","0.073925704","3.7531882135839796","0.0"
"4632034c-4bb9-470f-b1c7-c14a0bac6ee5","1","1768025052794","-1.79805","10.471951","2.94","0.2949375","0.1233375","-0.1491875","2.3391356468200684","-2.8789024353027344","0.5716528320312495","15.3277559","74.1245893","0.073925704","3.7531882135839796","0.0"
"4632034c-4bb9-470f-b1c7-c14a0bac6ee5","1","1768025052805","-1.79805","10.471951","2.94","0.2949375","0.1233375","-0.1491875","2.3391356468200684","-2.8789024353027344","0.5716528320312495","15.3277559","74.1245893","0.073925704","3.7531882135839796","0.0"
"4632034c-4bb9-470f-b1c7-c14a0bac6ee5","1","1768025052815","-1.64505","11.602051","2.25105","0.6381375","0.2061125","0.247225","3.3257076740264893","-3.4499800205230713","1.117871704101562","15.3277559","74.1245893","0.073925704","4.920602688890659","0.0"
"4632034c-4bb9-470f-b1c7-c14a0bac6ee5","1","1768025052826","-2.028","11.487","2.11695","0.920425","0.2842125","0.561","3.2381954193115234","-2.971726894378662","1.2003759765624995","15.3277559","74.1245893","0.073925704","4.556091833307573","0.0"
"4632034c-4bb9-470f-b1c7-c14a0bac6ee5","1","1768025052837","-2.028","11.487","2.11695","0.920425","0.2842125","0.561","3.2381954193115234","-2.971726894378662","1.2003759765624995","15.3277559","74.1245893","0.073925704","4.556091833307573","0.0"
"4632034c-4bb9-470f-b1c7-c14a0bac6ee5","1","1768025052847","-2.43","11.37195","1.84905","0.997975","0.2457125","0.769175","3.1858279705047607","-2.384819269180298","1.2718901062011714","15.3277559","74.1245893","0.073925704","4.177866350968705","0.0"
"4632034c-4bb9-470f-b1c7-c14a0bac6ee5","1","1768025052858","-2.43","11.37195","1.84905","0.997975","0.2457125","0.769175","3.1858279705047607","-2.384819269180298","1.2718901062011714","15.3277559","74.1245893","0.073925704","4.177866350968705","0.0"
"4632034c-4bb9-470f-b1c7-c14a0bac6ee5","1","1768025052869","-2.4880502","12.042001","1.7920501","1.040325","0.1936","0.9345875","3.1987955570220947","-2.3729302883148193","1.960666122436523","15.3277559","74.1245893","0.073925704","4.439290800623048","0.0"
"4632034c-4bb9-470f-b1c7-c14a0bac6ee5","1","1768025052879","-2.4880502","12.042001","1.7920501","1.040325","0.1936","0.9345875","3.1987955570220947","-2.3729302883148193","1.960666122436523","15.3277559","74.1245893","0.073925704","4.439290800623048","0.0"
"4632034c-4bb9-470f-b1c7-c14a0bac6ee5","1","1768025052890","-1.8559501","12.694051","1.8679501","1.0341375","0.1353","1.0179125","2.9918277263641357","-2.9349288940429688","2.4581674957275386","15.3277559","74.1245893","0.073925704","4.858747595253418","0.0"
"4632034c-4bb9-470f-b1c7-c14a0bac6ee5","1","1768025052901","-1.8559501","12.694051","1.8679501","1.0341375","0.1353","1.0179125","2.9918277263641357","-2.9349288940429688","2.4581674957275386","15.3277559","74.1245893","0.073925704","4.858747595253418","0.0"
"4632034c-4bb9-470f-b1c7-c14a0bac6ee5","1","1768025052911","-1.8559501","12.694051","1.8679501","1.0341375","0.1353","1.0179125","2.9918277263641357","-2.9349288940429688","2.4581674957275386","15.3277559","74.1245893","0.073925704","4.858747595253418","0.0"
"4632034c-4bb9-470f-b1c7-c14a0bac6ee5","1","1768025052922","-1.0699501","12.234","2.289","1.0511875","0.1027125","1.0324875","2.066333532333374","-3.240790605545044","2.0762380981445308","15.3277559","74.1245893","0.073925704","4.368434806200174","0.0"
"4632034c-4bb9-470f-b1c7-c14a0bac6ee5","1","1768025052933","-1.0699501","12.234","2.289","1.0511875","0.1027125","1.0324875","2.066333532333374","-3.240790605545044","2.0762380981445308","15.3277559","74.1245893","0.073925704","4.368434806200174","0.0"
"4632034c-4bb9-470f-b1c7-c14a0bac6ee5","1","1768025052943","0.11595","11.832001","1.6189501","1.1031625","0.088825","1.0291874","2.1767497062683105","-3.8929691314697266","1.26868480682373","15.3277559","74.1245893","0.073925704","4.637133713985472","0.0"
"4632034c-4bb9-470f-b1c7-c14a0bac6ee5","1","1768025052954","0.11595","11.832001","1.6189501","1.1031625","0.088825","1.0291874","2.1767497062683105","-3.8929691314697266","1.26868480682373","15.3277559","74.1245893","0.073925704","4.637133713985472","0.0"
"4632034c-4bb9-470f-b1c7-c14a0bac6ee5","1","1768025052964","0.93900007","11.6980505","0.96795005","1.3030875","0.10835","1.126125","2.3948161602020264","-4.322085857391357","0.8786625289916987","15.3277559","74.1245893","0.073925704","5.018726774758838","0.0"
"4632034c-4bb9-470f-b1c7-c14a0bac6ee5","1","1768025052975","0.93900007","11.6980505","0.96795005","1.3030875","0.10835","1.126125","2.3948161602020264","-4.322085857391357","0.8786625289916987","15.3277559","74.1245893","0.073925704","5.018726774758838","0.0"
"4632034c-4bb9-470f-b1c7-c14a0bac6ee5","1","1768025052985","0.93900007","11.6980505","0.96795005","1.3030875","0.10835","1.126125","2.3948161602020264","-4.322085857391357","0.8786625289916987","15.3277559","74.1245893","0.073925704","5.018726774758838","0.0"
"4632034c-4bb9-470f-b1c7-c14a0bac6ee5","1","1768025052996","0.26895002","11.410951","1.04505","1.375","0.111925","1.1528","1.9087915420532227","-3.2892565727233887","1.0025658035278315","15.3277559","74.1245893","0.073925704","3.9329164932173857","0.0"
"4632034c-4bb9-470f-b1c7-c14a0bac6ee5","1","1768025053006","0.26895002","11.410951","1.04505","1.375","0.111925","1.1528","1.9087915420532227","-3.2892565727233887","1.0025658035278315","15.3277559","74.1245893","0.073925704","3.9329164932173857","0.0"
"4632034c-4bb9-470f-b1c7-c14a0bac6ee5","1","1768025053017","-0.78300005","10.375951","1.81095","1.347225","0.07755","1.05655","0.5851337909698486","-1.7166894674301147","0.5949797058105464","15.3277559","74.1245893","0.073925704","1.9087705810931397","0.0"
"4632034c-4bb9-470f-b1c7-c14a0bac6ee5","1","1768025053027","-0.78300005","10.375951","1.81095","1.347225","0.07755","1.05655","0.5851337909698486","-1.7166894674301147","0.5949797058105464","15.3277559","74.1245893","0.073925704","1.9087705810931397","0.0"
"4632034c-4bb9-470f-b1c7-c14a0bac6ee5","1","1768025053038","-1.5109501","8.979","1.8870001","1.234475","-0.0012375","0.9607125","-0.07394886016845703","-0.4324617385864258","-0.5216346359252935","15.3277559","74.1245893","0.073925704","0.6816115335426195","0.0"
"4632034c-4bb9-470f-b1c7-c14a0bac6ee5","1","1768025053048","-1.5109501","8.979","1.8870001","1.234475","-0.0012375","0.9607125","-0.07394886016845703","-0.4324617385864258","-0.5216346359252935","15.3277559","74.1245893","0.073925704","0.6816115335426195","0.0"
"4632034c-4bb9-470f-b1c7-c14a0bac6ee5","1","1768025053059","-2.20005","8.51895","1.5619501","1.0608125","-0.1161875","0.801625","-0.08486282825469971","0.5525535941123962","-0.8914847946166997","15.3277559","74.1245893","0.073925704","1.0522653244399403","0.0"
"4632034c-4bb9-470f-b1c7-c14a0bac6ee5","1","1768025053069","-2.20005","8.51895","1.5619501","1.0608125","-0.1161875","0.801625","-0.08486282825469971","0.5525535941123962","-0.8914847946166997","15.3277559","74.1245893","0.073925704","1.0522653244399403","0.0"
"4632034c-4bb9-470f-b1c7-c14a0bac6ee5","1","1768025053080","-2.20005","8.51895","1.5619501","1.0608125","-0.1161875","0.801625","-0.08486282825469971","0.5525535941123962","-0.8914847946166997","15.3277559","74.1245893","0.073925704","1.0522653244399403","0.0"
"4632034c-4bb9-470f-b1c7-c14a0bac6ee5","1","1768025053090","-2.64105","8.845051","1.35105","0.8196375","-0.275","0.538725","-0.02841174602508545","1.0968573093414307","-0.5454717254638677","15.3277559","74.1245893","0.073925704","1.2253336638028214","0.0"
"4632034c-4bb9-470f-b1c7-c14a0bac6ee5","1","1768025053101","-2.64105","8.845051","1.35105","0.8196375","-0.275","0.538725","-0.02841174602508545","1.0968573093414307","-0.5454717254638677","15.3277559","74.1245893","0.073925704","1.2253336638028214","0.0"
"4632034c-4bb9-470f-b1c7-c14a0bac6ee5","1","1768025053111","-2.7169502","9.361951","1.0639501","0.65725","-0.365475","0.3716625","0.15759730339050293","1.1626715660095215","-0.074328002929688","15.3277559","74.1245893","0.073925704","1.1756558733160427","0.0"
"4632034c-4bb9-470f-b1c7-c14a0bac6ee5","1","1768025053122","-2.7169502","9.361951","1.0639501","0.65725","-0.365475","0.3716625","0.15759730339050293","1.1626715660095215","-0.074328002929688","15.3277559","74.1245893","0.073925704","1.1756558733160427","0.0"
"4632034c-4bb9-470f-b1c7-c14a0bac6ee5","1","1768025053133","-2.526","9.32295","1.2940501","0.4961","-0.4401375","0.2017125","-0.19801819324493408","1.032522439956665","-0.12148529052734425","15.3277559","74.1245893","0.073925704","1.05833476257967","0.0"
"4632034c-4bb9-470f-b1c7-c14a0bac6ee5","1","1768025053143","-2.526","9.32295","1.2940501","0.4961","-0.4401375","0.2017125","-0.19801819324493408","1.032522439956665","-0.12148529052734425","15.3277559","74.1245893","0.073925704","1.05833476257967","0.0"
"4632034c-4bb9-470f-b1c7-c14a0bac6ee5","1","1768025053154","-2.526","9.32295","1.2940501","0.4961","-0.4401375","0.2017125","-0.19801819324493408","1.032522439956665","-0.12148529052734425","15.3277559","74.1245893","0.073925704","1.05833476257967","0.0"
"4632034c-4bb9-470f-b1c7-c14a0bac6ee5","1","1768025053164","-2.334","9.41895","1.54305","0.428725","-0.450175","0.107525","-0.4982336759567261","0.8624881505966187","-0.03487545013427784","15.3277559","74.1245893","0.073925704","0.9966638865730995","0.0"
"4632034c-4bb9-470f-b1c7-c14a0bac6ee5","1","1768025053175","-2.334","9.41895","1.54305","0.428725","-0.450175","0.107525","-0.4982336759567261","0.8624881505966187","-0.03487545013427784","15.3277559","74.1245893","0.073925704","0.9966638865730995","0.0"
"4632034c-4bb9-470f-b1c7-c14a0bac6ee5","1","1768025053185","-2.085","9.514951","1.179","0.3906375","-0.4360125","-0.004675","-0.19111192226409912","0.5923243761062622","-0.017952499389648935","15.3277559","74.1245893","0.073925704","0.6226509661082099","0.0"
"4632034c-4bb9-470f-b1c7-c14a0bac6ee5","1","1768025053196","-2.085","9.514951","1.179","0.3906375","-0.4360125","-0.004675","-0.19111192226409912","0.5923243761062622","-0.017952499389648935","15.3277559","74.1245893","0.073925704","0.6226509661082099","0.0"
"4632034c-4bb9-470f-b1c7-c14a0bac6ee5","1","1768025053206","-1.91295","9.802051","0.58500004","0.3427875","-0.411675","-0.2904","0.33501219749450684","0.33464697003364563","0.18287796020507763","15.3277559","74.1245893","0.073925704","0.5076082301850199","0.0"
"4632034c-4bb9-470f-b1c7-c14a0bac6ee5","1","1768025053217","-1.91295","9.802051","0.58500004","0.3427875","-0.411675","-0.2904","0.33501219749450684","0.33464697003364563","0.18287796020507763","15.3277559","74.1245893","0.073925704","0.5076082301850199","0.0"
"4632034c-4bb9-470f-b1c7-c14a0bac6ee5","1","1768025053228","-1.7220001","9.89805","0.46995002","0.3073125","-0.38541248","-0.51713747","0.3569749891757965","0.05944760888814926","0.24119705200195263","15.3277559","74.1245893","0.073925704","0.4349036433441447","0.0"
"4632034c-4bb9-470f-b1c7-c14a0bac6ee5","1","1768025053238","-1.7220001","9.89805","0.46995002","0.3073125","-0.38541248","-0.51713747","0.3569749891757965","0.05944760888814926","0.24119705200195263","15.3277559","74.1245893","0.073925704","0.4349036433441447","0.0"
"4632034c-4bb9-470f-b1c7-c14a0bac6ee5","1","1768025053249","-1.7220001","9.89805","0.46995002","0.3073125","-0.38541248","-0.51713747","0.3569749891757965","0.05944760888814926","0.24119705200195263","15.3277559","74.1245893","0.073925704","0.4349036433441447","0.0"
"4632034c-4bb9-470f-b1c7-c14a0bac6ee5","1","1768025053259","-1.5109501","9.783","0.54705","0.27665","-0.3661625","-0.693275","0.17482656240463257","-0.22844961285591125","0.09992259979247997","15.3277559","74.1245893","0.073925704","0.3045292736101486","0.0"
"4632034c-4bb9-470f-b1c7-c14a0bac6ee5","1","1768025053270","-1.5109501","9.783","0.54705","0.27665","-0.3661625","-0.693275","0.17482656240463257","-0.22844961285591125","0.09992259979247997","15.3277559","74.1245893","0.073925704","0.3045292736101486","0.0"
"4632034c-4bb9-470f-b1c7-c14a0bac6ee5","1","1768025053280","-1.3770001","9.571951","0.50895","0.2990625","-0.334125","-0.6678375","0.11256349086761475","-0.4522114396095276","-0.1373458480834966","15.3277559","74.1245893","0.073925704","0.48582878421909087","0.0"
"4632034c-4bb9-470f-b1c7-c14a0bac6ee5","1","1768025053291","-1.3770001","9.571951","0.50895","0.2990625","-0.334125","-0.6678375","0.11256349086761475","-0.4522114396095276","-0.1373458480834966","15.3277559","74.1245893","0.073925704","0.48582878421909087","0.0"
"4632034c-4bb9-470f-b1c7-c14a0bac6ee5","1","1768025053301","-1.5300001","9.61095","0.68100005","0.372075","-0.26785","-0.5570125","-0.1100696325302124","-0.41827070713043213","-0.06382232666015675","15.3277559","74.1245893","0.073925704","0.4371944622579791","0.0"
"4632034c-4bb9-470f-b1c7-c14a0bac6ee5","1","1768025053312","-1.5300001","9.61095","0.68100005","0.372075","-0.26785","-0.5570125","-0.1100696325302124","-0.41827070713043213","-0.06382232666015675","15.3277559","74.1245893","0.073925704","0.4371944622579791","0.0"
"4632034c-4bb9-470f-b1c7-c14a0bac6ee5","1","1768025053322","-1.434","9.24705","0.94905007","0.4236375","-0.19167499","-0.38445","-0.47724464535713196","-0.4995708763599396","-0.4298282241821294","15.3277559","74.1245893","0.073925704","0.8136865577927753","0.0"
"4632034c-4bb9-470f-b1c7-c14a0bac6ee5","1","1768025053333","-1.434","9.24705","0.94905007","0.4236375","-0.19167499","-0.38445","-0.47724464535713196","-0.4995708763599396","-0.4298282241821294","15.3277559","74.1245893","0.073925704","0.8136865577927753","0.0"
"4632034c-4bb9-470f-b1c7-c14a0bac6ee5","1","1768025053344","-1.434","9.24705","0.94905007","0.4236375","-0.19167499","-0.38445","-0.47724464535713196","-0.4995708763599396","-0.4298282241821294","15.3277559","74.1245893","0.073925704","0.8136865577927753","0.0"
"4632034c-4bb9-470f-b1c7-c14a0bac6ee5","1","1768025053354","-1.2430501","8.883","0.68100005","0.3944875","-0.166375","-0.268675","-0.33541274070739746","-0.6986310482025146","-0.8480773544311528","15.3277559","74.1245893","0.073925704","1.1488351697438304","0.0"
"4632034c-4bb9-470f-b1c7-c14a0bac6ee5","1","1768025053365","-1.2430501","8.883","0.68100005","0.3944875","-0.166375","-0.268675","-0.33541274070739746","-0.6986310482025146","-0.8480773544311528","15.3277559","74.1245893","0.073925704","1.1488351697438304","0.0"
"4632034c-4bb9-470f-b1c7-c14a0bac6ee5","1","1768025053375","-1.14705","8.883","0.54705","0.3320625","-0.169125","0.014162499","-0.2983850836753845","-0.8450989723205566","-0.881426391601563","15.3277559","74.1245893","0.073925704","1.2570355663182244","0.0"
"4632034c-4bb9-470f-b1c7-c14a0bac6ee5","1","1768025053386","-1.14705","8.883","0.54705","0.3320625","-0.169125","0.014162499","-0.2983850836753845","-0.8450989723205566","-0.881426391601563","15.3277559","74.1245893","0.073925704","1.2570355663182244","0.0"
"4632034c-4bb9-470f-b1c7-c14a0bac6ee5","1","1768025053396","-1.1659501","9.32295","0.528","0.3004375","-0.1568875","0.1588125","-0.33123695850372314","-0.9018447399139404","-0.44877105712890675","15.3277559","74.1245893","0.073925704","1.060394888381605","0.0"
"4632034c-4bb9-470f-b1c7-c14a0bac6ee5","1","1768025053406","-1.1659501","9.32295","0.528","0.3004375","-0.1568875","0.1588125","-0.33123695850372314","-0.9018447399139404","-0.44877105712890675","15.3277559","74.1245893","0.073925704","1.060394888381605","0.0"
"4632034c-4bb9-470f-b1c7-c14a0bac6ee5","1","1768025053417","-1.1659501","9.32295","0.528","0.3004375","-0.1568875","0.1588125","-0.33123695850372314","-0.9018447399139404","-0.44877105712890675","15.3277559","74.1245893","0.073925704","1.060394888381605","0.0"
"4632034c-4bb9-470f-b1c7-c14a0bac6ee5","1","1768025053427","-1.128","9.496051","0.62295","0.3007125","-0.108625","0.2388375","-0.46868622303009033","-0.8960517644882202","-0.28042083740234425","15.3277559","74.1245893","0.073925704","1.0493861950445587","0.0"
"4632034c-4bb9-470f-b1c7-c14a0bac6ee5","1","1768025053438","-1.128","9.496051","0.62295","0.3007125","-0.108625","0.2388375","-0.46868622303009033","-0.8960517644882202","-0.28042083740234425","15.3277559","74.1245893","0.073925704","1.0493861950445587","0.0"
"4632034c-4bb9-470f-b1c7-c14a0bac6ee5","1","1768025053449","-0.95595","9.802051","0.432","0.3152875","-0.0262625","0.288475","-0.34320908784866333","-1.0507901906967163","-0.01414924621582081","15.3277559","74.1245893","0.073925704","1.1055101555457683","0.0"
"4632034c-4bb9-470f-b1c7-c14a0bac6ee5","1","1768025053459","-0.95595","9.802051","0.432","0.3152875","-0.0262625","0.288475","-0.34320908784866333","-1.0507901906967163","-0.01414924621582081","15.3277559","74.1245893","0.073925704","1.1055101555457683","0.0"
"4632034c-4bb9-470f-b1c7-c14a0bac6ee5","1","1768025053470","-0.78300005","10.10805","0.37395","0.27995","0.0286","0.3102","-0.3620512783527374","-1.1803938150405884","0.25981754302978466","15.3277559","74.1245893","0.073925704","1.2617114735187915","0.0"
"4632034c-4bb9-470f-b1c7-c14a0bac6ee5","1","1768025053480","-0.78300005","10.10805","0.37395","0.27995","0.0286","0.3102","-0.3620512783527374","-1.1803938150405884","0.25981754302978466","15.3277559","74.1245893","0.073925704","1.2617114735187915","0.0"
"4632034c-4bb9-470f-b1c7-c14a0bac6ee5","1","1768025053491","-0.84105","10.06995","0.39405003","0.207625","0.10285","0.3499375","-0.4144744873046875","-1.0055546760559082","0.24403614044189403","15.3277559","74.1245893","0.073925704","1.1146671902438692","0.0"
"4632034c-4bb9-470f-b1c7-c14a0bac6ee5","1","1768025053501","-0.84105","10.06995","0.39405003","0.207625","0.10285","0.3499375","-0.4144744873046875","-1.0055546760559082","0.24403614044189403","15.3277559","74.1245893","0.073925704","1.1146671902438692","0.0"
"4632034c-4bb9-470f-b1c7-c14a0bac6ee5","1","1768025053512","-0.84105","10.06995","0.39405003","0.207625","0.10285","0.3499375","-0.4144744873046875","-1.0055546760559082","0.24403614044189403","15.3277559","74.1245893","0.073925704","1.1146671902438692","0.0"
"4632034c-4bb9-470f-b1c7-c14a0bac6ee5","1","1768025053522","-1.128","10.185","0.39405003","0.1700875","0.1332375","0.3532375","-0.3984827399253845","-0.6424737572669983","0.4169430160522456","15.3277559","74.1245893","0.073925704","0.8633669564153811","0.0"
"4632034c-4bb9-470f-b1c7-c14a0bac6ee5","1","1768025053532","-1.128","10.185","0.39405003","0.1700875","0.1332375","0.3532375","-0.3984827399253845","-0.6424737572669983","0.4169430160522456","15.3277559","74.1245893","0.073925704","0.8633669564153811","0.0"
"4632034c-4bb9-470f-b1c7-c14a0bac6ee5","1","1768025053543","-1.8169501","10.740001","0.33600003","0.138875","0.1639","0.3202375","-0.28431975841522217","0.024980410933494568","1.0840525054931636","15.3277559","74.1245893","0.073925704","1.1209957986637158","0.0"
"4632034c-4bb9-470f-b1c7-c14a0bac6ee5","1","1768025053554","-1.8169501","10.740001","0.33600003","0.138875","0.1639","0.3202375","-0.28431975841522217","0.024980410933494568","1.0840525054931636","15.3277559","74.1245893","0.073925704","1.1209957986637158","0.0"
"4632034c-4bb9-470f-b1c7-c14a0bac6ee5","1","1768025053564","-2.2390501","11.16195","0.70005006","0.1181125","0.2212375","0.2440625","-0.6259889006614685","0.5009198188781738","1.5676006698608393","15.3277559","74.1245893","0.073925704","1.7607255972593938","0.0"
"4632034c-4bb9-470f-b1c7-c14a0bac6ee5","1","1768025053574","-2.2390501","11.16195","0.70005006","0.1181125","0.2212375","0.2440625","-0.6259889006614685","0.5009198188781738","1.5676006698608393","15.3277559","74.1245893","0.073925704","1.7607255972593938","0.0"
"4632034c-4bb9-470f-b1c7-c14a0bac6ee5","1","1768025053585","-2.2390501","11.16195","0.70005006","0.1181125","0.2212375","0.2440625","-0.6259889006614685","0.5009198188781738","1.5676006698608393","15.3277559","74.1245893","0.073925704","1.7607255972593938","0.0"
"4632034c-4bb9-470f-b1c7-c14a0bac6ee5","1","1768025053595","-2.1430502","11.238001","1.026","0.1172875","0.2385625","0.2110625","-0.9894800186157227","0.49797558784484863","1.6228899383544917","15.3277559","74.1245893","0.073925704","1.9648974897794131","0.0"
"4632034c-4bb9-470f-b1c7-c14a0bac6ee5","1","1768025053606","-2.1430502","11.238001","1.026","0.1172875","0.2385625","0.2110625","-0.9894800186157227","0.49797558784484863","1.6228899383544917","15.3277559","74.1245893","0.073925704","1.9648974897794131","0.0"
"4632034c-4bb9-470f-b1c7-c14a0bac6ee5","1","1768025053616","-1.3770001","11.64","1.2360001","0.092125","0.2352625","0.1054625","-1.3208063840866089","-0.23485414683818817","1.899558486938476","15.3277559","74.1245893","0.073925704","2.325512506917782","0.0"
"4632034c-4bb9-470f-b1c7-c14a0bac6ee5","1","1768025053627","-1.3770001","11.64","1.2360001","0.092125","0.2352625","0.1054625","-1.3208063840866089","-0.23485414683818817","1.899558486938476","15.3277559","74.1245893","0.073925704","2.325512506917782","0.0"
"4632034c-4bb9-470f-b1c7-c14a0bac6ee5","1","1768025053637","-0.40005","12.00405","1.9260001","0.0730125","0.2261875","0.0495","-2.134502649307251","-1.146992802619934","2.1103634262084956","15.3277559","74.1245893","0.073925704","3.2133048158928315","0.0"
"4632034c-4bb9-470f-b1c7-c14a0bac6ee5","1","1768025053648","-0.40005","12.00405","1.9260001","0.0730125","0.2261875","0.0495","-2.134502649307251","-1.146992802619934","2.1103634262084956","15.3277559","74.1245893","0.073925704","3.2133048158928315","0.0"
"4632034c-4bb9-470f-b1c7-c14a0bac6ee5","1","1768025053658","0.17295001","11.620951","2.36595","0.03795","0.20693749","0.0694375","-2.620340585708618","-1.6003379821777344","1.6463035964965815","15.3277559","74.1245893","0.073925704","3.4839032670483356","0.0"
"4632034c-4bb9-470f-b1c7-c14a0bac6ee5","1","1768025053669","0.17295001","11.620951","2.36595","0.03795","0.20693749","0.0694375","-2.620340585708618","-1.6003379821777344","1.6463035964965815","15.3277559","74.1245893","0.073925704","3.4839032670483356","0.0"
"4632034c-4bb9-470f-b1c7-c14a0bac6ee5","1","1768025053680","0.17295001","11.620951","2.36595","0.03795","0.20693749","0.0694375","-2.620340585708618","-1.6003379821777344","1.6463035964965815","15.3277559","74.1245893","0.073925704","3.4839032670483356","0.0"
"4632034c-4bb9-470f-b1c7-c14a0bac6ee5","1","1768025053690","-0.01695","10.64505","1.6189501","-0.155375","0.1233375","0.114125","-1.8146528005599976","-1.3309721946716309","0.7196697616577143","15.3277559","74.1245893","0.073925704","2.3627053001620264","0.0"
"4632034c-4bb9-470f-b1c7-c14a0bac6ee5","1","1768025053701","-0.01695","10.64505","1.6189501","-0.155375","0.1233375","0.114125","-1.8146528005599976","-1.3309721946716309","0.7196697616577143","15.3277559","74.1245893","0.073925704","2.3627053001620264","0.0"
"4632034c-4bb9-470f-b1c7-c14a0bac6ee5","1","1768025053711","-0.30495003","10.375951","0.71895003","-0.2567125","0.08305","0.1502875","-0.8147018551826477","-1.0523924827575684","0.5098337554931636","15.3277559","74.1245893","0.073925704","1.4252015677941663","0.0"
"4632034c-4bb9-470f-b1c7-c14a0bac6ee5","1","1768025053722","-0.30495003","10.375951","0.71895003","-0.2567125","0.08305","0.1502875","-0.8147018551826477","-1.0523924827575684","0.5098337554931636","15.3277559","74.1245893","0.073925704","1.4252015677941663","0.0"
"4632034c-4bb9-470f-b1c7-c14a0bac6ee5","2","1768025053733","-0.573","10.20405","0.777","-0.2580875","0.0814","0.2517625","-0.7610548138618469","-0.7161129117012024","0.3862089538574214","15.3277568","74.1245888","0.0916063","1.1140823524529542","0.0"
"4632034c-4bb9-470f-b1c7-c14a0bac6ee5","2","1768025053743","-0.573","10.20405","0.777","-0.2580875","0.0814","0.2517625","-0.7610548138618469","-0.7161129117012024","0.3862089538574214","15.3277568","74.1245888","0.0916063","1.1140823524529542","0.0"
"4632034c-4bb9-470f-b1c7-c14a0bac6ee5","2","1768025053754","-0.573","10.20405","0.777","-0.2580875","0.0814","0.2517625","-0.7610548138618469","-0.7161129117012024","0.3862089538574214","15.3277568","74.1245888","0.0916063","1.1140823524529542","0.0"
"4632034c-4bb9-470f-b1c7-c14a0bac6ee5","2","1768025053764","-0.573","10.530001","0.91095006","-0.237875","0.0801625","0.2536875","-0.7985399961471558","-0.6788763403892517","0.7228321456909175","15.3277568","74.1245888","0.0916063","1.2731950054218475","0.0"
"4632034c-4bb9-470f-b1c7-c14a0bac6ee5","2","1768025053774","-0.573","10.530001","0.91095006","-0.237875","0.0801625","0.2536875","-0.7985399961471558","-0.6788763403892517","0.7228321456909175","15.3277568","74.1245888","0.0916063","1.2731950054218475","0.0"
"4632034c-4bb9-470f-b1c7-c14a0bac6ee5","2","1768025053785","-0.132","12.387001","1.15995","-0.2237125","0.0699875","0.2470875","-0.9839887619018555","-1.2542123794555664","2.529346885681152","15.3277568","74.1245888","0.0916063","2.989795686068478","0.0"
"4632034c-4bb9-470f-b1c7-c14a0bac6ee5","2","1768025053796","-0.132","12.387001","1.15995","-0.2237125","0.0699875","0.2470875","-0.9839887619018555","-1.2542123794555664","2.529346885681152","15.3277568","74.1245888","0.0916063","2.989795686068478","0.0"
"4632034c-4bb9-470f-b1c7-c14a0bac6ee5","2","1768025053806","-0.132","12.387001","1.15995","-0.2237125","0.0699875","0.2470875","-0.9839887619018555","-1.2542123794555664","2.529346885681152","15.3277568","74.1245888","0.0916063","2.989795686068478","0.0"
"4632034c-4bb9-470f-b1c7-c14a0bac6ee5","2","1768025053817","0.15405001","12.769951","2.289","-0.218625","0.0240625","0.3273875","-2.0415260791778564","-1.431041955947876","2.9226030731201167","15.3277568","74.1245888","0.0916063","3.8415255478335144","0.0"
"4632034c-4bb9-470f-b1c7-c14a0bac6ee5","2","1768025053827","-0.132","12.80805","0.46995002","-0.24585","-0.0279125","0.40645","-0.1247834861278534","-1.181312084197998","2.9521860504150386","15.3277568","74.1245888","0.0916063","3.1822117520598123","0.0"
"4632034c-4bb9-470f-b1c7-c14a0bac6ee5","2","1768025053838","-0.132","12.80805","0.46995002","-0.24585","-0.0279125","0.40645","-0.1247834861278534","-1.181312084197998","2.9521860504150386","15.3277568","74.1245888","0.0916063","3.1822117520598123","0.0"
"4632034c-4bb9-470f-b1c7-c14a0bac6ee5","2","1768025053848","-0.132","12.80805","0.46995002","-0.24585","-0.0279125","0.40645","-0.1247834861278534","-1.181312084197998","2.9521860504150386","15.3277568","74.1245888","0.0916063","3.1822117520598123","0.0"
"4632034c-4bb9-470f-b1c7-c14a0bac6ee5","2","1768025053859","-0.34305","12.904051","-2.9950502","-0.1733875","-0.0402875","0.5113625","3.4194507598876953","-1.1017875671386719","2.945231857299804","15.3277568","74.1245888","0.0916063","4.645532266129636","0.0"
"4632034c-4bb9-470f-b1c7-c14a0bac6ee5","2","1768025053870","-0.34305","12.904051","-2.9950502","-0.1733875","-0.0402875","0.5113625","3.4194507598876953","-1.1017875671386719","2.945231857299804","15.3277568","74.1245888","0.0916063","4.645532266129636","0.0"
"4632034c-4bb9-470f-b1c7-c14a0bac6ee5","2","1768025053880","0.80505","13.708051","-5.21595","-0.0875875","-0.0213125","0.5104","5.621220111846924","-2.315809726715088","3.561754646301269","15.3277568","74.1245888","0.0916063","7.046075957341734","0.0"
"4632034c-4bb9-470f-b1c7-c14a0bac6ee5","2","1768025053891","0.80505","13.708051","-5.21595","-0.0875875","-0.0213125","0.5104","5.621220111846924","-2.315809726715088","3.561754646301269","15.3277568","74.1245888","0.0916063","7.046075957341734","0.0"
"4632034c-4bb9-470f-b1c7-c14a0bac6ee5","2","1768025053901","1.9540501","14.436001","-3.9910502","0.653675","0.3158375","0.5588","4.373793125152588","-3.2509334087371826","4.277098121643066","15.3277568","74.1245888","0.0916063","6.92764048373169","0.0"
"4632034c-4bb9-470f-b1c7-c14a0bac6ee5","2","1768025053912","1.9540501","14.436001","-3.9910502","0.653675","0.3158375","0.5588","4.373793125152588","-3.2509334087371826","4.277098121643066","15.3277568","74.1245888","0.0916063","6.92764048373169","0.0"
"4632034c-4bb9-470f-b1c7-c14a0bac6ee5","2","1768025053922","1.9540501","14.436001","-3.9910502","0.653675","0.3158375","0.5588","4.373793125152588","-3.2509334087371826","4.277098121643066","15.3277568","74.1245888","0.0916063","6.92764048373169","0.0"
"4632034c-4bb9-470f-b1c7-c14a0bac6ee5","2","1768025053933","1.5139501","8.46195","1.7920501","0.9659375","0.4467375","0.539825","-1.6851004362106323","-1.8582429885864258","-1.3948054885864263","15.3277568","74.1245888","0.0916063","2.8702112876474257","0.0"
"4632034c-4bb9-470f-b1c7-c14a0bac6ee5","2","1768025053943","1.5139501","8.46195","1.7920501","0.9659375","0.4467375","0.539825","-1.6851004362106323","-1.8582429885864258","-1.3948054885864263","15.3277568","74.1245888","0.0916063","2.8702112876474257","0.0"
"4632034c-4bb9-470f-b1c7-c14a0bac6ee5","2","1768025053953","1.0540501","4.4209504","0.79605","0.8806875","0.39833748","0.490875","-0.8433265686035156","-1.1877031326293945","-5.431909618377686","15.3277568","74.1245888","0.0916063","5.623831481720828","0.0"
"4632034c-4bb9-470f-b1c7-c14a0bac6ee5","2","1768025053964","1.0540501","4.4209504","0.79605","0.8806875","0.39833748","0.490875","-0.8433265686035156","-1.1877031326293945","-5.431909618377686","15.3277568","74.1245888","0.0916063","5.623831481720828","0.0"
"4632034c-4bb9-470f-b1c7-c14a0bac6ee5","2","1768025053975","0.74805003","2.94705","-2.19","0.6677","0.285725","0.576125","2.1000537872314453","-0.9222081303596497","-6.846878824234009","15.3277568","74.1245888","0.0916063","7.2208339808301005","0.0"
"4632034c-4bb9-470f-b1c7-c14a0bac6ee5","2","1768025053985","0.74805003","2.94705","-2.19","0.6677","0.285725","0.576125","2.1000537872314453","-0.9222081303596497","-6.846878824234009","15.3277568","74.1245888","0.0916063","7.2208339808301005","0.0"
"4632034c-4bb9-470f-b1c7-c14a0bac6ee5","2","1768025053996","-0.63000005","1.8930001","-3.2440503","0.722425","0.3023625","0.5669125","3.1978797912597656","0.48686301708221436","-7.799841222763062","15.3277568","74.1245888","0.0916063","8.443991583194762","0.0"
"4632034c-4bb9-470f-b1c7-c14a0bac6ee5","2","1768025054006","-0.63000005","1.8930001","-3.2440503","0.722425","0.3023625","0.5669125","3.1978797912597656","0.48686301708221436","-7.799841222763062","15.3277568","74.1245888","0.0916063","8.443991583194762","0.0"
"4632034c-4bb9-470f-b1c7-c14a0bac6ee5","2","1768025054017","-0.63000005","1.8930001","-3.2440503","0.722425","0.3023625","0.5669125","3.1978797912597656","0.48686301708221436","-7.799841222763062","15.3277568","74.1245888","0.0916063","8.443991583194762","0.0"
"4632034c-4bb9-470f-b1c7-c14a0bac6ee5","2","1768025054027","-2.69805","3.693","-2.11395","1.02905","0.4334","0.5082","1.9984766244888306","2.639146566390991","-6.01164442062378","15.3277568","74.1245888","0.0916063","6.862861797933763","0.0"
"4632034c-4bb9-470f-b1c7-c14a0bac6ee5","2","1768025054038","-2.69805","3.693","-2.11395","1.02905","0.4334","0.5082","1.9984766244888306","2.639146566390991","-6.01164442062378","15.3277568","74.1245888","0.0916063","6.862861797933763","0.0"
"4632034c-4bb9-470f-b1c7-c14a0bac6ee5","2","1768025054048","-4.15395","7.69605","-0.10305001","1.2600499","0.5016","0.084425","-0.40704846382141113","4.242279529571533","-2.1724296188354497","15.3277568","74.1245888","0.0916063","4.78352114113804","0.0"
"4632034c-4bb9-470f-b1c7-c14a0bac6ee5","2","1768025054059","-4.15395","7.69605","-0.10305001","1.2600499","0.5016","0.084425","-0.40704846382141113","4.242279529571533","-2.1724296188354497","15.3277568","74.1245888","0.0916063","4.78352114113804","0.0"
"4632034c-4bb9-470f-b1c7-c14a0bac6ee5","2","1768025054070","-2.9280002","12.65505","1.84905","1.2222375","0.4588375","-0.1923625","-3.1264545917510986","3.0575859546661377","2.5600819015502925","15.3277568","74.1245888","0.0916063","5.067303970268463","0.0"
"4632034c-4bb9-470f-b1c7-c14a0bac6ee5","2","1768025054080","-2.9280002","12.65505","1.84905","1.2222375","0.4588375","-0.1923625","-3.1264545917510986","3.0575859546661377","2.5600819015502925","15.3277568","74.1245888","0.0916063","5.067303970268463","0.0"
"4632034c-4bb9-470f-b1c7-c14a0bac6ee5","2","1768025054091","-1.14705","14.800051","3.85995","0.8806875","0.376475","-0.5080625","-5.770713806152344","1.180385708808899","4.3519920730590815","15.3277568","74.1245888","0.0916063","7.3235430809169575","0.0"
"4632034c-4bb9-470f-b1c7-c14a0bac6ee5","2","1768025054101","-1.14705","14.800051","3.85995","0.8806875","0.376475","-0.5080625","-5.770713806152344","1.180385708808899","4.3519920730590815","15.3277568","74.1245888","0.0916063","7.3235430809169575","0.0"
"4632034c-4bb9-470f-b1c7-c14a0bac6ee5","2","1768025054112","-1.14705","14.800051","3.85995","0.8806875","0.376475","-0.5080625","-5.770713806152344","1.180385708808899","4.3519920730590815","15.3277568","74.1245888","0.0916063","7.3235430809169575","0.0"
"4632034c-4bb9-470f-b1c7-c14a0bac6ee5","2","1768025054122","0.058050003","14.39805","4.35795","0.117837496","0.1736625","-0.59688747","-6.4615888595581055","-0.2648364305496216","3.7722219848632808","15.3277568","74.1245888","0.0916063","7.486783530194896","0.0"
"4632034c-4bb9-470f-b1c7-c14a0bac6ee5","2","1768025054133","0.058050003","14.39805","4.35795","0.117837496","0.1736625","-0.59688747","-6.4615888595581055","-0.2648364305496216","3.7722219848632808","15.3277568","74.1245888","0.0916063","7.486783530194896","0.0"
"4632034c-4bb9-470f-b1c7-c14a0bac6ee5","2","1768025054143","0.441","13.32495","1.0830001","-0.931975","-0.1458875","-0.5589375","-3.0637640953063965","-0.7762480974197388","3.187400283813476","15.3277568","74.1245888","0.0916063","4.488733909432661","0.0"
"4632034c-4bb9-470f-b1c7-c14a0bac6ee5","2","1768025054154","0.441","13.32495","1.0830001","-0.931975","-0.1458875","-0.5589375","-3.0637640953063965","-0.7762480974197388","3.187400283813476","15.3277568","74.1245888","0.0916063","4.488733909432661","0.0"
"4632034c-4bb9-470f-b1c7-c14a0bac6ee5","2","1768025054165","0.72900003","11.679001","-2.40105","-1.252075","-0.208175","-0.515625","0.909713625907898","-1.0795118808746338","2.051815452575683","15.3277568","74.1245888","0.0916063","2.4905564505829494","0.0"
"4632034c-4bb9-470f-b1c7-c14a0bac6ee5","2","1768025054175","0.72900003","11.679001","-2.40105","-1.252075","-0.208175","-0.515625","0.909713625907898","-1.0795118808746338","2.051815452575683","15.3277568","74.1245888","0.0916063","2.4905564505829494","0.0"
"4632034c-4bb9-470f-b1c7-c14a0bac6ee5","2","1768025054186","0.72900003","11.679001","-2.40105","-1.252075","-0.208175","-0.515625","0.909713625907898","-1.0795118808746338","2.051815452575683","15.3277568","74.1245888","0.0916063","2.4905564505829494","0.0"
"4632034c-4bb9-470f-b1c7-c14a0bac6ee5","2","1768025054196","0.74805003","11.487","-4.4500504","-0.861025","-0.0396","-0.485925","3.301018714904785","-1.169176697731018","2.024274291992187","15.3277568","74.1245888","0.0916063","4.0449209035393165","0.0"
"4632034c-4bb9-470f-b1c7-c14a0bac6ee5","2","1768025054207","0.74805003","11.487","-4.4500504","-0.861025","-0.0396","-0.485925","3.301018714904785","-1.169176697731018","2.024274291992187","15.3277568","74.1245888","0.0916063","4.0449209035393165","0.0"
"4632034c-4bb9-470f-b1c7-c14a0bac6ee5","2","1768025054217","0.84300005","8.787001","-2.229","0.093225","0.356675","-0.3955875","1.5122849941253662","-1.2750824689865112","-0.9230657196044927","15.3277568","74.1245888","0.0916063","2.1828631493711317","0.0"
"4632034c-4bb9-470f-b1c7-c14a0bac6ee5","2","1768025054227","0.84300005","8.787001","-2.229","0.093225","0.356675","-0.3955875","1.5122849941253662","-1.2750824689865112","-0.9230657196044927","15.3277568","74.1245888","0.0916063","2.1828631493711317","0.0"
"4632034c-4bb9-470f-b1c7-c14a0bac6ee5","2","1768025054238","0.74805003","5.1870003","1.9060501","0.0540375","0.4246","-0.2968625","-2.3027408123016357","-1.1698650121688843","-4.867695388793946","15.3277568","74.1245888","0.0916063","5.5105043138920005","0.0"
"4632034c-4bb9-470f-b1c7-c14a0bac6ee5","2","1768025054249","0.74805003","5.1870003","1.9060501","0.0540375","0.4246","-0.2968625","-2.3027408123016357","-1.1698650121688843","-4.867695388793946","15.3277568","74.1245888","0.0916063","5.5105043138920005","0.0"
"4632034c-4bb9-470f-b1c7-c14a0bac6ee5","2","1768025054259","0.9580501","3.081","3.5530503","-0.17985","0.4338125","-0.1508375","-3.7372708320617676","-1.3788115978240967","-7.133009490966797","15.3277568","74.1245888","0.0916063","8.16995343271284","0.0"
"4632034c-4bb9-470f-b1c7-c14a0bac6ee5","2","1768025054270","0.9580501","3.081","3.5530503","-0.17985","0.4338125","-0.1508375","-3.7372708320617676","-1.3788115978240967","-7.133009490966797","15.3277568","74.1245888","0.0916063","8.16995343271284","0.0"
"4632034c-4bb9-470f-b1c7-c14a0bac6ee5","2","1768025054280","0.9580501","3.081","3.5530503","-0.17985","0.4338125","-0.1508375","-3.7372708320617676","-1.3788115978240967","-7.133009490966797","15.3277568","74.1245888","0.0916063","8.16995343271284","0.0"
"4632034c-4bb9-470f-b1c7-c14a0bac6ee5","2","1768025054291","0.65205","3.4830003","1.81095","-0.84534997","0.2968625","0.3073125","-2.029430866241455","-1.046588659286499","-6.550848541259766","15.3277568","74.1245888","0.0916063","6.937402545126371","0.0"
"4632034c-4bb9-470f-b1c7-c14a0bac6ee5","2","1768025054301","0.65205","3.4830003","1.81095","-0.84534997","0.2968625","0.3073125","-2.029430866241455","-1.046588659286499","-6.550848541259766","15.3277568","74.1245888","0.0916063","6.937402545126371","0.0"
"4632034c-4bb9-470f-b1c7-c14a0bac6ee5","2","1768025054311","-0.55305004","3.3679502","-0.064950004","-0.852225","0.3125375","0.4890875","-0.18704292178153992","0.3235229551792145","-6.416842279434205","15.3277568","74.1245888","0.0916063","6.427714756914064","0.0"
"4632034c-4bb9-470f-b1c7-c14a0bac6ee5","2","1768025054322","-0.55305004","3.3679502","-0.064950004","-0.852225","0.3125375","0.4890875","-0.18704292178153992","0.3235229551792145","-6.416842279434205","15.3277568","74.1245888","0.0916063","6.427714756914064","0.0"
"4632034c-4bb9-470f-b1c7-c14a0bac6ee5","2","1768025054333","-1.5109501","3.7510502","-1.3290001","-0.561","0.4008125","0.8459","1.02388596534729","1.4169933795928955","-5.928842840194703","15.3277568","74.1245888","0.0916063","6.181212674837619","0.0"
"4632034c-4bb9-470f-b1c7-c14a0bac6ee5","2","1768025054343","-1.5109501","3.7510502","-1.3290001","-0.561","0.4008125","0.8459","1.02388596534729","1.4169933795928955","-5.928842840194703","15.3277568","74.1245888","0.0916063","6.181212674837619","0.0"
"4632034c-4bb9-470f-b1c7-c14a0bac6ee5","2","1768025054354","-1.5109501","3.7510502","-1.3290001","-0.561","0.4008125","0.8459","1.02388596534729","1.4169933795928955","-5.928842840194703","15.3277568","74.1245888","0.0916063","6.181212674837619","0.0"
"4632034c-4bb9-470f-b1c7-c14a0bac6ee5","2","1768025054365","-1.5109501","6.1060505","-1.9990501","-0.0067375","0.5685625","0.692175","1.642148494720459","1.4995040893554688","-3.595671710968018","15.3277568","74.1245888","0.0916063","4.227767643303274","0.0"
"4632034c-4bb9-470f-b1c7-c14a0bac6ee5","2","1768025054375","-1.5109501","6.1060505","-1.9990501","-0.0067375","0.5685625","0.692175","1.642148494720459","1.4995040893554688","-3.595671710968018","15.3277568","74.1245888","0.0916063","4.227767643303274","0.0"
"4632034c-4bb9-470f-b1c7-c14a0bac6ee5","2","1768025054386","-1.5490501","13.440001","-1.08","0.64968747","0.739475","0.4112625","0.4336053133010864","1.4101974964141846","3.68158763885498","15.3277568","74.1245888","0.0916063","3.9662019728180202","0.0"
"4632034c-4bb9-470f-b1c7-c14a0bac6ee5","2","1768025054397","-1.5490501","13.440001","-1.08","0.64968747","0.739475","0.4112625","0.4336053133010864","1.4101974964141846","3.68158763885498","15.3277568","74.1245888","0.0916063","3.9662019728180202","0.0"
"4632034c-4bb9-470f-b1c7-c14a0bac6ee5","2","1768025054407","-1.33905","18.094051","3.7060502","0.7022125","0.667425","0.1852125","-4.7556304931640625","0.612514317035675","8.076627197265625","15.3277568","74.1245888","0.0916063","9.392715372015502","0.0"
"4632034c-4bb9-470f-b1c7-c14a0bac6ee5","2","1768025054418","-1.33905","18.094051","3.7060502","0.7022125","0.667425","0.1852125","-4.7556304931640625","0.612514317035675","8.076627197265625","15.3277568","74.1245888","0.0916063","9.392715372015502","0.0"
"4632034c-4bb9-470f-b1c7-c14a0bac6ee5","2","1768025054429","-0.99405","15.469951","9.87195","0.0625625","0.3917375","-0.236775","-10.914796829223633","-0.6614248156547546","4.961347045898437","15.3277568","74.1245888","0.0916063","12.007715732804444","0.0"
"4632034c-4bb9-470f-b1c7-c14a0bac6ee5","2","1768025054440","-0.99405","15.469951","9.87195","0.0625625","0.3917375","-0.236775","-10.914796829223633","-0.6614248156547546","4.961347045898437","15.3277568","74.1245888","0.0916063","12.007715732804444","0.0"
"4632034c-4bb9-470f-b1c7-c14a0bac6ee5","2","1768025054451","-1.281","14.47395","11.212951","-1.9416375","-0.2651","-0.445225","-12.202404975891113","-0.7451909780502319","3.87986701965332","15.3277568","74.1245888","0.0916063","12.82604244806687","0.0"
"4632034c-4bb9-470f-b1c7-c14a0bac6ee5","2","1768025054461","-1.281","14.47395","11.212951","-1.9416375","-0.2651","-0.445225","-12.202404975891113","-0.7451909780502319","3.87986701965332","15.3277568","74.1245888","0.0916063","12.82604244806687","0.0"
"4632034c-4bb9-470f-b1c7-c14a0bac6ee5","2","1768025054472","-1.281","14.47395","11.212951","-1.9416375","-0.2651","-0.445225","-12.202404975891113","-0.7451909780502319","3.87986701965332","15.3277568","74.1245888","0.0916063","12.82604244806687","0.0"
"4632034c-4bb9-470f-b1c7-c14a0bac6ee5","2","1768025054483","-0.89805007","14.340001","6.1189504","-2.5939374","-0.4816625","-0.566775","-6.439866065979004","-0.3049784302711487","4.4138817214965815","15.3277568","74.1245888","0.0916063","7.813273234825477","0.0"
"4632034c-4bb9-470f-b1c7-c14a0bac6ee5","2","1768025054494","-0.89805007","14.340001","6.1189504","-2.5939374","-0.4816625","-0.566775","-6.439866065979004","-0.3049784302711487","4.4138817214965815","15.3277568","74.1245888","0.0916063","7.813273234825477","0.0"
"4632034c-4bb9-470f-b1c7-c14a0bac6ee5","2","1768025054505","0.039","11.2570505","1.1209501","-2.1885874","-0.43175","-0.5424375","-0.5590180158615112","-0.4474656879901886","1.480105819702148","15.3277568","74.1245888","0.0916063","1.644214074110315","0.0"
"4632034c-4bb9-470f-b1c7-c14a0bac6ee5","2","1768025054515","0.039","11.2570505","1.1209501","-2.1885874","-0.43175","-0.5424375","-0.5590180158615112","-0.4474656879901886","1.480105819702148","15.3277568","74.1245888","0.0916063","1.644214074110315","0.0"
"4632034c-4bb9-470f-b1c7-c14a0bac6ee5","2","1768025054527","-1.0699501","11.602051","-3.1290002","-1.1011","-0.23705","-0.411675","4.080493450164795","1.142045259475708","1.485502662658691","15.3277568","74.1245888","0.0916063","4.490146137075584","0.0"
"4632034c-4bb9-470f-b1c7-c14a0bac6ee5","2","1768025054538","-1.0699501","11.602051","-3.1290002","-1.1011","-0.23705","-0.411675","4.080493450164795","1.142045259475708","1.485502662658691","15.3277568","74.1245888","0.0916063","4.490146137075584","0.0"
"4632034c-4bb9-470f-b1c7-c14a0bac6ee5","2","1768025054548","-1.8169501","12.406051","-4.737","-0.4343625","-0.070125","-0.3826625","5.950926780700684","1.9623767137527466","2.0384640121459956","15.3277568","74.1245888","0.0916063","6.589369275185144","0.0"
"4632034c-4bb9-470f-b1c7-c14a0bac6ee5","2","1768025054559","-1.8169501","12.406051","-4.737","-0.4343625","-0.070125","-0.3826625","5.950926780700684","1.9623767137527466","2.0384640121459956","15.3277568","74.1245888","0.0916063","6.589369275185144","0.0"
"4632034c-4bb9-470f-b1c7-c14a0bac6ee5","2","1768025054570","-1.8169501","12.406051","-4.737","-0.4343625","-0.070125","-0.3826625","5.950926780700684","1.9623767137527466","2.0384640121459956","15.3277568","74.1245888","0.0916063","6.589369275185144","0.0"
"4632034c-4bb9-470f-b1c7-c14a0bac6ee5","2","1768025054581","-1.8750001","8.82495","-1.9219501","0.29273748","0.1211375","-0.3020875","2.7629029750823975","1.6992238759994507","-1.1747069931030278","15.3277568","74.1245888","0.0916063","3.4497726229609564","0.0"
"4632034c-4bb9-470f-b1c7-c14a0bac6ee5","2","1768025054592","-1.8750001","8.82495","-1.9219501","0.29273748","0.1211375","-0.3020875","2.7629029750823975","1.6992238759994507","-1.1747069931030278","15.3277568","74.1245888","0.0916063","3.4497726229609564","0.0"
"4632034c-4bb9-470f-b1c7-c14a0bac6ee5","2","1768025054603","-1.3579501","5.8960505","0.087000005","0.2905375","0.108899996","-0.2242625","0.4397837221622467","1.0180256366729736","-3.861451206207276","15.3277568","74.1245888","0.0916063","4.0175354805056696","0.0"
"4632034c-4bb9-470f-b1c7-c14a0bac6ee5","2","1768025054614","-1.3579501","5.8960505","0.087000005","0.2905375","0.108899996","-0.2242625","0.4397837221622467","1.0180256366729736","-3.861451206207276","15.3277568","74.1245888","0.0916063","4.0175354805056696","0.0"
"4632034c-4bb9-470f-b1c7-c14a0bac6ee5","2","1768025054624","-1.6639501","5.4360003","0.37395","0.2253625","0.1137125","-0.1758625","0.026205599308013916","1.2721893787384033","-4.256665763854981","15.3277568","74.1245888","0.0916063","4.442786960229469","0.0"
"4632034c-4bb9-470f-b1c7-c14a0bac6ee5","2","1768025054635","-1.6639501","5.4360003","0.37395","0.2253625","0.1137125","-0.1758625","0.026205599308013916","1.2721893787384033","-4.256665763854981","15.3277568","74.1245888","0.0916063","4.442786960229469","0.0"
"4632034c-4bb9-470f-b1c7-c14a0bac6ee5","2","1768025054646","-2.5830002","6.66195","0.50895","-0.18727499","0.1216875","-0.2047375","-0.13192099332809448","2.0514159202575684","-2.9480190849304204","15.3277568","74.1245888","0.0916063","3.593957004678947","0.0"
"4632034c-4bb9-470f-b1c7-c14a0bac6ee5","2","1768025054656","-2.5830002","6.66195","0.50895","-0.18727499","0.1216875","-0.2047375","-0.13192099332809448","2.0514159202575684","-2.9480190849304204","15.3277568","74.1245888","0.0916063","3.593957004678947","0.0"
"4632034c-4bb9-470f-b1c7-c14a0bac6ee5","3","1768025054667","-2.5830002","6.66195","0.50895","-0.18727499","0.1216875","-0.2047375","-0.13192099332809448","2.0514159202575684","-2.9480190849304204","15.3277593","74.1245895","0.103944995","3.593957004678947","0.0"
"4632034c-4bb9-470f-b1c7-c14a0bac6ee5","3","1768025054678","-3.5020502","8.232","0.70005006","-0.0983125","0.2946625","-0.3135","-0.24489089846611023","2.7710554599761963","-1.2787900543212896","15.3277593","74.1245895","0.103944995","3.0617027807163897","0.0"
"4632034c-4bb9-470f-b1c7-c14a0bac6ee5","3","1768025054688","-3.5020502","8.232","0.70005006","-0.0983125","0.2946625","-0.3135","-0.24489089846611023","2.7710554599761963","-1.2787900543212896","15.3277593","74.1245895","0.103944995","3.0617027807163897","0.0"
"4632034c-4bb9-470f-b1c7-c14a0bac6ee5","3","1768025054699","-3.04305","11.104051","1.50405","0.754875","0.7799","-0.5698","-0.6261706352233887","1.8194499015808105","1.6407532119750972","15.3277593","74.1245895","0.103944995","2.5287464703653235","0.0"
"4632034c-4bb9-470f-b1c7-c14a0bac6ee5","3","1768025054710","-3.04305","11.104051","1.50405","0.754875","0.7799","-0.5698","-0.6261706352233887","1.8194499015808105","1.6407532119750972","15.3277593","74.1245895","0.103944995","2.5287464703653235","0.0"
"4632034c-4bb9-470f-b1c7-c14a0bac6ee5","3","1768025054720","-2.085","13.74705","2.84505","1.2882375","1.047475","-0.635525","-1.725883960723877","0.15384113788604736","4.276184501647949","15.3277593","74.1245895","0.103944995","4.613902516712304","0.0"
"4632034c-4bb9-470f-b1c7-c14a0bac6ee5","3","1768025054731","-2.085","13.74705","2.84505","1.2882375","1.047475","-0.635525","-1.725883960723877","0.15384113788604736","4.276184501647949","15.3277593","74.1245895","0.103944995","4.613902516712304","0.0"
"4632034c-4bb9-470f-b1c7-c14a0bac6ee5","3","1768025054741","-0.132","14.206051","4.64505","1.2324125","1.112375","-0.5489","-3.4855852127075195","-2.5337276458740234","4.502119483947753","15.3277593","74.1245895","0.103944995","6.232026950058354","0.0"
"4632034c-4bb9-470f-b1c7-c14a0bac6ee5","3","1768025054752","-0.132","14.206051","4.64505","1.2324125","1.112375","-0.5489","-3.4855852127075195","-2.5337276458740234","4.502119483947753","15.3277593","74.1245895","0.103944995","6.232026950058354","0.0"
"4632034c-4bb9-470f-b1c7-c14a0bac6ee5","3","1768025054763","0.84300005","12.3490505","5.4490504","0.6868125","1.045","-0.410575","-4.456684112548828","-3.7857308387756348","2.384592475891113","15.3277593","74.1245895","0.103944995","6.31506710485158","0.0"
"4632034c-4bb9-470f-b1c7-c14a0bac6ee5","3","1768025054773","0.84300005","12.3490505","5.4490504","0.6868125","1.045","-0.410575","-4.456684112548828","-3.7857308387756348","2.384592475891113","15.3277593","74.1245895","0.103944995","6.31506710485158","0.0"
"4632034c-4bb9-470f-b1c7-c14a0bac6ee5","3","1768025054784","0.84300005","12.3490505","5.4490504","0.6868125","1.045","-0.410575","-4.456684112548828","-3.7857308387756348","2.384592475891113","15.3277593","74.1245895","0.103944995","6.31506710485158","0.0"
"4632034c-4bb9-470f-b1c7-c14a0bac6ee5","3","1768025054794","-0.036000002","11.50605","2.84505","-0.28861248","0.7761875","-0.1329625","-2.2600154876708984","-2.4303460121154785","1.5685133361816401","15.3277593","74.1245895","0.103944995","3.670760933225916","0.0"
"4632034c-4bb9-470f-b1c7-c14a0bac6ee5","3","1768025054805","-0.036000002","11.50605","2.84505","-0.28861248","0.7761875","-0.1329625","-2.2600154876708984","-2.4303460121154785","1.5685133361816401","15.3277593","74.1245895","0.103944995","3.670760933225916","0.0"
"4632034c-4bb9-470f-b1c7-c14a0bac6ee5","3","1768025054815","-0.036000002","11.50605","2.84505","-0.28861248","0.7761875","-0.1329625","-2.2600154876708984","-2.4303460121154785","1.5685133361816401","15.3277593","74.1245895","0.103944995","3.670760933225916","0.0"
"4632034c-4bb9-470f-b1c7-c14a0bac6ee5","3","1768025054826","-0.64905006","11.181001","0.87195003","-0.6483125","0.709775","0.0026125","-0.42290693521499634","-1.307955265045166","1.3392938995361323","15.3277593","74.1245895","0.103944995","1.9191939455268745","0.0"
"4632034c-4bb9-470f-b1c7-c14a0bac6ee5","3","1768025054837","-1.0900501","10.089001","0.91095006","-1.0307","0.669075","0.1348875","-0.4850587248802185","-0.701793909072876","0.3427414321899409","15.3277593","74.1245895","0.103944995","0.9193847653370287","0.0"
"4632034c-4bb9-470f-b1c7-c14a0bac6ee5","3","1768025054847","-1.0900501","10.089001","0.91095006","-1.0307","0.669075","0.1348875","-0.4850587248802185","-0.701793909072876","0.3427414321899409","15.3277593","74.1245895","0.103944995","0.9193847653370287","0.0"
"4632034c-4bb9-470f-b1c7-c14a0bac6ee5","3","1768025054858","-1.0900501","10.089001","0.91095006","-1.0307","0.669075","0.1348875","-0.4850587248802185","-0.701793909072876","0.3427414321899409","15.3277593","74.1245895","0.103944995","0.9193847653370287","0.0"
"4632034c-4bb9-470f-b1c7-c14a0bac6ee5","3","1768025054869","-1.0900501","8.710951","2.1360002","-0.929775","0.7618875","0.2187625","-1.4978514909744263","-0.8172827959060669","-0.9375768280029302","15.3277593","74.1245895","0.103944995","1.9469361997524177","0.0"
"4632034c-4bb9-470f-b1c7-c14a0bac6ee5","3","1768025054879","-1.0900501","8.710951","2.1360002","-0.929775","0.7618875","0.2187625","-1.4978514909744263","-0.8172827959060669","-0.9375768280029302","15.3277593","74.1245895","0.103944995","1.9469361997524177","0.0"
"4632034c-4bb9-470f-b1c7-c14a0bac6ee5","3","1768025054890","-0.61095005","7.5040503","2.94","-0.7693125","0.8922375","0.360525","-2.032928705215454","-1.3510608673095703","-2.1048417663574224","15.3277593","74.1245895","0.103944995","3.2231232444737365","0.0"
"4632034c-4bb9-470f-b1c7-c14a0bac6ee5","3","1768025054901","-0.61095005","7.5040503","2.94","-0.7693125","0.8922375","0.360525","-2.032928705215454","-1.3510608673095703","-2.1048417663574224","15.3277593","74.1245895","0.103944995","3.2231232444737365","0.0"
"4632034c-4bb9-470f-b1c7-c14a0bac6ee5","3","1768025054912","-1.2240001","7.4080505","2.7490501","-0.7357625","0.945725","0.4354625","-1.9540231227874756","-0.6677389740943909","-2.085325775146485","15.3277593","74.1245895","0.103944995","2.9347342793518867","0.0"
"4632034c-4bb9-470f-b1c7-c14a0bac6ee5","3","1768025054922","-1.2240001","7.4080505","2.7490501","-0.7357625","0.945725","0.4354625","-1.9540231227874756","-0.6677389740943909","-2.085325775146485","15.3277593","74.1245895","0.103944995","2.9347342793518867","0.0"
"4632034c-4bb9-470f-b1c7-c14a0bac6ee5","3","1768025054933","-2.2770002","9.036","1.46595","-0.7852625","0.96029997","0.59688747","-0.8379137516021729","0.7173360586166382","-0.44162803649902393","15.3277593","74.1245895","0.103944995","1.188152262438474","0.0"
"4632034c-4bb9-470f-b1c7-c14a0bac6ee5","3","1768025054944","-2.2770002","9.036","1.46595","-0.7852625","0.96029997","0.59688747","-0.8379137516021729","0.7173360586166382","-0.44162803649902393","15.3277593","74.1245895","0.103944995","1.188152262438474","0.0"
"4632034c-4bb9-470f-b1c7-c14a0bac6ee5","3","1768025054954","-2.2770002","9.036","1.46595","-0.7852625","0.96029997","0.59688747","-0.8379137516021729","0.7173360586166382","-0.44162803649902393","15.3277593","74.1245895","0.103944995","1.188152262438474","0.0"
"4632034c-4bb9-470f-b1c7-c14a0bac6ee5","3","1768025054965","-2.2390501","10.894051","1.2360001","-0.7403","0.984775","0.66275","-0.2354738712310791","0.7814866304397583","1.3504309082031245","15.3277593","74.1245895","0.103944995","1.5779204464797818","0.0"
"4632034c-4bb9-470f-b1c7-c14a0bac6ee5","3","1768025054976","-2.2390501","10.894051","1.2360001","-0.7403","0.984775","0.66275","-0.2354738712310791","0.7814866304397583","1.3504309082031245","15.3277593","74.1245895","0.103944995","1.5779204464797818","0.0"
"4632034c-4bb9-470f-b1c7-c14a0bac6ee5","3","1768025054987","-1.45305","12.061951","2.1360002","-0.6204","1.0352376","0.61765","-0.40350043773651123","-0.185127854347229","2.517508926391601","15.3277593","74.1245895","0.103944995","2.5563521119302317","0.0"
"4632034c-4bb9-470f-b1c7-c14a0bac6ee5","3","1768025054998","-1.45305","12.061951","2.1360002","-0.6204","1.0352376","0.61765","-0.40350043773651123","-0.185127854347229","2.517508926391601","15.3277593","74.1245895","0.103944995","2.5563521119302317","0.0"
"4632034c-4bb9-470f-b1c7-c14a0bac6ee5","3","1768025055008","-0.80205005","12.616951","2.634","-0.4709375","1.0852875","0.441925","-0.3470346927642822","-0.8270317316055298","3.0727133178710933","15.3277593","74.1245895","0.103944995","3.200934503685888","0.0"
"4632034c-4bb9-470f-b1c7-c14a0bac6ee5","3","1768025055019","-0.80205005","12.616951","2.634","-0.4709375","1.0852875","0.441925","-0.3470346927642822","-0.8270317316055298","3.0727133178710933","15.3277593","74.1245895","0.103944995","3.200934503685888","0.0"
"4632034c-4bb9-470f-b1c7-c14a0bac6ee5","3","1768025055030","-1.434","13.249051","2.3470502","-0.2226125","1.1507375","0.3070375","-0.22608256340026855","-0.022050023078918457","3.719626846313476","15.3277593","74.1245895","0.103944995","3.7265565076632545","0.0"
"4632034c-4bb9-470f-b1c7-c14a0bac6ee5","3","1768025055041","-1.434","13.249051","2.3470502","-0.2226125","1.1507375","0.3070375","-0.22608256340026855","-0.022050023078918457","3.719626846313476","15.3277593","74.1245895","0.103944995","3.7265565076632545","0.0"
"4632034c-4bb9-470f-b1c7-c14a0bac6ee5","3","1768025055052","-1.60695","13.15305","2.079","8.25E-4","1.1565125","0.1419","-0.10382199287414551","0.3106032609939575","3.598953666687011","15.3277593","74.1245895","0.103944995","3.6138235827035503","0.0"
"4632034c-4bb9-470f-b1c7-c14a0bac6ee5","3","1768025055063","-1.60695","13.15305","2.079","8.25E-4","1.1565125","0.1419","-0.10382199287414551","0.3106032609939575","3.598953666687011","15.3277593","74.1245895","0.103944995","3.6138235827035503","0.0"
"4632034c-4bb9-470f-b1c7-c14a0bac6ee5","3","1768025055074","-1.60695","13.15305","2.079","8.25E-4","1.1565125","0.1419","-0.10382199287414551","0.3106032609939575","3.598953666687011","15.3277593","74.1245895","0.103944995","3.6138235827035503","0.0"
"4632034c-4bb9-470f-b1c7-c14a0bac6ee5","3","1768025055085","-1.6830001","12.330001","1.2940501","-0.047025","1.081025","0.039875","0.3041563034057617","0.7703822255134583","2.673988761901855","15.3277593","74.1245895","0.103944995","2.799324155767949","0.0"
"4632034c-4bb9-470f-b1c7-c14a0bac6ee5","3","1768025055096","-1.6830001","12.330001","1.2940501","-0.047025","1.081025","0.039875","0.3041563034057617","0.7703822255134583","2.673988761901855","15.3277593","74.1245895","0.103944995","2.799324155767949","0.0"
"4632034c-4bb9-470f-b1c7-c14a0bac6ee5","3","1768025055107","-1.7410501","11.16195","0.81495005","-0.0325875","1.008425","0.016775","0.41465646028518677","1.0431761741638184","1.460508766174316","15.3277593","74.1245895","0.103944995","1.8420755593816787","0.0"
"4632034c-4bb9-470f-b1c7-c14a0bac6ee5","3","1768025055118","-1.7410501","11.16195","0.81495005","-0.0325875","1.008425","0.016775","0.41465646028518677","1.0431761741638184","1.460508766174316","15.3277593","74.1245895","0.103944995","1.8420755593816787","0.0"
"4632034c-4bb9-470f-b1c7-c14a0bac6ee5","3","1768025055128","-1.779","10.2619505","1.1400001","0.0202125","0.924","0.0231","-0.05293530225753784","0.8192285299301147","0.6350063705444331","15.3277593","74.1245895","0.103944995","1.0378683062453384","0.0"
"4632034c-4bb9-470f-b1c7-c14a0bac6ee5","3","1768025055139","-1.779","10.2619505","1.1400001","0.0202125","0.924","0.0231","-0.05293530225753784","0.8192285299301147","0.6350063705444331","15.3277593","74.1245895","0.103944995","1.0378683062453384","0.0"
"4632034c-4bb9-470f-b1c7-c14a0bac6ee5","3","1768025055150","-1.8559501","10.032001","1.8870001","0.078375","0.9065375","0.0188375","-0.7156556844711304","0.3565657138824463","0.5344213867187495","15.3277593","74.1245895","0.103944995","0.961721573853229","0.0"
"4632034c-4bb9-470f-b1c7-c14a0bac6ee5","3","1768025055161","-1.8559501","10.032001","1.8870001","0.078375","0.9065375","0.0188375","-0.7156556844711304","0.3565657138824463","0.5344213867187495","15.3277593","74.1245895","0.103944995","0.961721573853229","0.0"
"4632034c-4bb9-470f-b1c7-c14a0bac6ee5","3","1768025055172","-1.60695","9.208051","2.19405","0.2283875","0.947925","0.0149875","-0.9028453826904297","-0.10596251487731934","-0.2518621063232427","15.3277593","74.1245895","0.103944995","0.9432880579155738","0.0"
"4632034c-4bb9-470f-b1c7-c14a0bac6ee5","3","1768025055183","-1.60695","9.208051","2.19405","0.2283875","0.947925","0.0149875","-0.9028453826904297","-0.10596251487731934","-0.2518621063232427","15.3277593","74.1245895","0.103944995","0.9432880579155738","0.0"
"4632034c-4bb9-470f-b1c7-c14a0bac6ee5","3","1768025055194","-1.60695","9.208051","2.19405","0.2283875","0.947925","0.0149875","-0.9028453826904297","-0.10596251487731934","-0.2518621063232427","15.3277593","74.1245895","0.103944995","0.9432880579155738","0.0"
"4632034c-4bb9-470f-b1c7-c14a0bac6ee5","3","1768025055204","-1.3770001","8.385","1.485","0.197175","0.94476247","0.0356125","-0.4057885408401489","0.09671592712402344","-1.1939941024780278","15.3277593","74.1245895","0.103944995","1.2647688433816464","0.0"
"4632034c-4bb9-470f-b1c7-c14a0bac6ee5","3","1768025055215","-1.3770001","8.385","1.485","0.197175","0.94476247","0.0356125","-0.4057885408401489","0.09671592712402344","-1.1939941024780278","15.3277593","74.1245895","0.103944995","1.2647688433816464","0.0"
"4632034c-4bb9-470f-b1c7-c14a0bac6ee5","3","1768025055226","-1.64505","8.269951","-0.14205001","0.122099996","0.928125","0.06215","0.5203916430473328","1.3304990530014038","-1.4987168884277349","15.3277593","74.1245895","0.103944995","2.0705524634381147","0.0"
"4632034c-4bb9-470f-b1c7-c14a0bac6ee5","3","1768025055237","-1.64505","8.269951","-0.14205001","0.122099996","0.928125","0.06215","0.5203916430473328","1.3304990530014038","-1.4987168884277349","15.3277593","74.1245895","0.103944995","2.0705524634381147","0.0"
"4632034c-4bb9-470f-b1c7-c14a0bac6ee5","3","1768025055248","-2.29605","9.41895","0.94905007","0.136675","0.962225","0.06215","-0.5324478149414062","0.9728960990905762","-0.1322341537475591","15.3277593","74.1245895","0.103944995","1.1169213789156653","0.0"
"4632034c-4bb9-470f-b1c7-c14a0bac6ee5","3","1768025055258","-2.29605","9.41895","0.94905007","0.136675","0.962225","0.06215","-0.5324478149414062","0.9728960990905762","-0.1322341537475591","15.3277593","74.1245895","0.103944995","1.1169213789156653","0.0"
"4632034c-4bb9-470f-b1c7-c14a0bac6ee5","3","1768025055269","-1.91295","9.361951","2.9209502","0.144375","0.993025","-0.00935","-1.5817545652389526","-0.7687714099884033","0.025878372192382315","15.3277593","74.1245895","0.103944995","1.7588708524553909","0.0"
"4632034c-4bb9-470f-b1c7-c14a0bac6ee5","3","1768025055280","-1.91295","9.361951","2.9209502","0.144375","0.993025","-0.00935","-1.5817545652389526","-0.7687714099884033","0.025878372192382315","15.3277593","74.1245895","0.103944995","1.7588708524553909","0.0"
"4632034c-4bb9-470f-b1c7-c14a0bac6ee5","3","1768025055291","-1.91295","9.361951","2.9209502","0.144375","0.993025","-0.00935","-1.5817545652389526","-0.7687714099884033","0.025878372192382315","15.3277593","74.1245895","0.103944995","1.7588708524553909","0.0"
"4632034c-4bb9-470f-b1c7-c14a0bac6ee5","3","1768025055302","-1.95105","8.51895","4.032","0.0218625","1.011725","-0.0713625","-2.331223487854004","-1.6042511463165283","-0.6106563186645513","15.3277593","74.1245895","0.103944995","2.8950174145080756","0.0"
"4632034c-4bb9-470f-b1c7-c14a0bac6ee5","3","1768025055313","-1.95105","8.51895","4.032","0.0218625","1.011725","-0.0713625","-2.331223487854004","-1.6042511463165283","-0.6106563186645513","15.3277593","74.1245895","0.103944995","2.8950174145080756","0.0"
"4632034c-4bb9-470f-b1c7-c14a0bac6ee5","3","1768025055324","-2.1049502","7.90605","3.7450502","-0.0961125","1.027675","-0.11165","-2.2688190937042236","-1.3876826763153076","-1.2141490554809575","15.3277593","74.1245895","0.103944995","2.923587046596658","0.0"
"4632034c-4bb9-470f-b1c7-c14a0bac6ee5","3","1768025055334","-2.1049502","7.90605","3.7450502","-0.0961125","1.027675","-0.11165","-2.2688190937042236","-1.3876826763153076","-1.2141490554809575","15.3277593","74.1245895","0.103944995","2.923587046596658","0.0"
"4632034c-4bb9-470f-b1c7-c14a0bac6ee5","3","1768025055345","-2.9850001","8.76795","2.05995","-0.265925","1.023275","-0.152625","-1.5896295309066772","0.3765672445297241","-0.463244018554688","15.3277593","74.1245895","0.103944995","1.6980341445065197","0.0"
"4632034c-4bb9-470f-b1c7-c14a0bac6ee5","3","1768025055356","-2.9850001","8.76795","2.05995","-0.265925","1.023275","-0.152625","-1.5896295309066772","0.3765672445297241","-0.463244018554688","15.3277593","74.1245895","0.103944995","1.6980341445065197","0.0"
"4632034c-4bb9-470f-b1c7-c14a0bac6ee5","3","1768025055367","-3.6750002","10.20405","1.81095","-0.5303375","0.9926125","-0.2102375","-1.5392769575119019","0.9237912893295288","1.0382732772827143","15.3277593","74.1245895","0.103944995","2.0738310674902136","0.0"
"4632034c-4bb9-470f-b1c7-c14a0bac6ee5","3","1768025055378","-3.6750002","10.20405","1.81095","-0.5303375","0.9926125","-0.2102375","-1.5392769575119019","0.9237912893295288","1.0382732772827143","15.3277593","74.1245895","0.103944995","2.0738310674902136","0.0"
"4632034c-4bb9-470f-b1c7-c14a0bac6ee5","3","1768025055389","-3.25305","10.089001","2.9020503","-0.613525","0.99549997","-0.2729375","-1.718160629272461","-0.2371997833251953","1.0428251647949214","15.3277593","74.1245895","0.103944995","2.0238142230750857","0.0"
"4632034c-4bb9-470f-b1c7-c14a0bac6ee5","3","1768025055400","-3.25305","10.089001","2.9020503","-0.613525","0.99549997","-0.2729375","-1.718160629272461","-0.2371997833251953","1.0428251647949214","15.3277593","74.1245895","0.103944995","2.0238142230750857","0.0"
"4632034c-4bb9-470f-b1c7-c14a0bac6ee5","3","1768025055410","-3.25305","10.089001","2.9020503","-0.613525","0.99549997","-0.2729375","-1.718160629272461","-0.2371997833251953","1.0428251647949214","15.3277593","74.1245895","0.103944995","2.0238142230750857","0.0"
"4632034c-4bb9-470f-b1c7-c14a0bac6ee5","3","1768025055421","-2.8510501","9.208051","3.0940502","-0.6430875","1.036475","-0.3542","-1.511535882949829","-0.6596035957336426","0.1784939193725581","15.3277593","74.1245895","0.103944995","1.6588181661058115","0.0"
"4632034c-4bb9-470f-b1c7-c14a0bac6ee5","3","1768025055432","-2.8510501","9.208051","3.0940502","-0.6430875","1.036475","-0.3542","-1.511535882949829","-0.6596035957336426","0.1784939193725581","15.3277593","74.1245895","0.103944995","1.6588181661058115","0.0"
"4632034c-4bb9-470f-b1c7-c14a0bac6ee5","3","1768025055442","-2.5830002","8.500051","2.09805","-0.648175","1.07745","-0.357775","-0.7404991388320923","-0.013352632522583008","-0.7118669128417974","15.3277593","74.1245895","0.103944995","1.0272642157718066","0.0"
"4632034c-4bb9-470f-b1c7-c14a0bac6ee5","3","1768025055453","-2.5830002","8.500051","2.09805","-0.648175","1.07745","-0.357775","-0.7404991388320923","-0.013352632522583008","-0.7118669128417974","15.3277593","74.1245895","0.103944995","1.0272642157718066","0.0"
"4632034c-4bb9-470f-b1c7-c14a0bac6ee5","3","1768025055464","-3.0619502","8.557051","1.6570501","-0.6441875","1.128875","-0.3323375","-0.73723304271698","0.5958762168884277","-0.6205554580688482","15.3277593","74.1245895","0.103944995","1.1329916600161005","0.0"
"4632034c-4bb9-470f-b1c7-c14a0bac6ee5","3","1768025055475","-3.0619502","8.557051","1.6570501","-0.6441875","1.128875","-0.3323375","-0.73723304271698","0.5958762168884277","-0.6205554580688482","15.3277593","74.1245895","0.103944995","1.1329916600161005","0.0"
"4632034c-4bb9-470f-b1c7-c14a0bac6ee5","3","1768025055486","-2.39205","8.442","2.0400002","-0.7403","1.166275","-0.2894375","-0.24713236093521118","-0.0902552604675293","-0.8054643249511724","15.3277593","74.1245895","0.103944995","0.8473447908806195","0.0"
"4632034c-4bb9-470f-b1c7-c14a0bac6ee5","3","1768025055497","-2.39205","8.442","2.0400002","-0.7403","1.166275","-0.2894375","-0.24713236093521118","-0.0902552604675293","-0.8054643249511724","15.3277593","74.1245895","0.103944995","0.8473447908806195","0.0"
"4632034c-4bb9-470f-b1c7-c14a0bac6ee5","3","1768025055508","-1.8360001","8.09805","2.289","-0.782375","1.1936375","-0.191125","0.1573231816291809","-0.5686657428741455","-1.2169385528564458","15.3277593","74.1245895","0.103944995","1.3524314223001743","0.0"
"4632034c-4bb9-470f-b1c7-c14a0bac6ee5","3","1768025055518","-1.8360001","8.09805","2.289","-0.782375","1.1936375","-0.191125","0.1573231816291809","-0.5686657428741455","-1.2169385528564458","15.3277593","74.1245895","0.103944995","1.3524314223001743","0.0"
"4632034c-4bb9-470f-b1c7-c14a0bac6ee5","3","1768025055529","-1.8360001","8.09805","2.289","-0.782375","1.1936375","-0.191125","0.1573231816291809","-0.5686657428741455","-1.2169385528564458","15.3277593","74.1245895","0.103944995","1.3524314223001743","0.0"
"4632034c-4bb9-470f-b1c7-c14a0bac6ee5","3","1768025055540","-1.5880501","7.3320003","2.73","-0.681725","1.273525","-0.0603625","0.08632147312164307","-1.0899245738983154","-1.9019251441955571","15.3277593","74.1245895","0.103944995","2.193788099984273","0.0"
"4632034c-4bb9-470f-b1c7-c14a0bac6ee5","3","1768025055551","-1.5880501","7.3320003","2.73","-0.681725","1.273525","-0.0603625","0.08632147312164307","-1.0899245738983154","-1.9019251441955571","15.3277593","74.1245895","0.103944995","2.193788099984273","0.0"
"4632034c-4bb9-470f-b1c7-c14a0bac6ee5","3","1768025055562","-1.626","7.12095","3.6109502","-0.6304375","1.2984124","-0.0122375","-0.19568157196044922","-1.8618433475494385","-1.879928646087647","15.3277593","74.1245895","0.103944995","2.653089452468564","0.0"
"4632034c-4bb9-470f-b1c7-c14a0bac6ee5","3","1768025055572","-1.626","7.12095","3.6109502","-0.6304375","1.2984124","-0.0122375","-0.19568157196044922","-1.8618433475494385","-1.879928646087647","15.3277593","74.1245895","0.103944995","2.653089452468564","0.0"
"4632034c-4bb9-470f-b1c7-c14a0bac6ee5","3","1768025055583","-0.66795003","7.485","4.75995","-0.5999125","1.319725","0.0342375","0.5656914710998535","-3.1952013969421387","-1.527535018920899","15.3277593","74.1245895","0.103944995","3.586458147187247","0.0"
"4632034c-4bb9-470f-b1c7-c14a0bac6ee5","3","1768025055594","-0.66795003","7.485","4.75995","-0.5999125","1.319725","0.0342375","0.5656914710998535","-3.1952013969421387","-1.527535018920899","15.3277593","74.1245895","0.103944995","3.586458147187247","0.0"
"4632034c-4bb9-470f-b1c7-c14a0bac6ee5","3","1768025055605","0.69000006","7.0249505","5.37195","-0.6479","1.3281125","0.2781625","1.6259864568710327","-4.2111711502075195","-2.174157676696778","15.3277593","74.1245895","0.103944995","5.010464650849028","0.0"
"4632034c-4bb9-470f-b1c7-c14a0bac6ee5","3","1768025055616","0.69000006","7.0249505","5.37195","-0.6479","1.3281125","0.2781625","1.6259864568710327","-4.2111711502075195","-2.174157676696778","15.3277593","74.1245895","0.103944995","5.010464650849028","0.0"
"4632034c-4bb9-470f-b1c7-c14a0bac6ee5","3","1768025055627","0.69000006","7.0249505","5.37195","-0.6479","1.3281125","0.2781625","1.6259864568710327","-4.2111711502075195","-2.174157676696778","15.3277593","74.1245895","0.103944995","5.010464650849028","0.0"
"4632034c-4bb9-470f-b1c7-c14a0bac6ee5","3","1768025055638","1.3990501","7.1020503","5.3149505","-1.06315","1.1946","0.73039997","2.468830108642578","-4.227292537689209","-2.2813845252990728","15.3277593","74.1245895","0.103944995","5.4009110024899565","0.0"
"4632034c-4bb9-470f-b1c7-c14a0bac6ee5","3","1768025055649","1.3990501","7.1020503","5.3149505","-1.06315","1.1946","0.73039997","2.468830108642578","-4.227292537689209","-2.2813845252990728","15.3277593","74.1245895","0.103944995","5.4009110024899565","0.0"
"4632034c-4bb9-470f-b1c7-c14a0bac6ee5","3","1768025055660","0.01995","6.8910003","3.5149503","-1.2137125","1.1983125","1.2067","1.6128673553466797","-1.94825279712677","-2.4994502639770513","15.3277593","74.1245895","0.103944995","3.5558798755793517","0.0"
"4632034c-4bb9-470f-b1c7-c14a0bac6ee5","3","1768025055670","0.01995","6.8910003","3.5149503","-1.2137125","1.1983125","1.2067","1.6128673553466797","-1.94825279712677","-2.4994502639770513","15.3277593","74.1245895","0.103944995","3.5558798755793517","0.0"
"4632034c-4bb9-470f-b1c7-c14a0bac6ee5","3","1768025055681","-0.112950005","6.7570505","5.56395","-1.2067","1.212475","1.35795","1.1063644886016846","-3.6257097721099854","-1.9196124649047857","15.3277593","74.1245895","0.103944995","4.24908528375585","0.0"
"4632034c-4bb9-470f-b1c7-c14a0bac6ee5","3","1768025055693","-0.112950005","6.7570505","5.56395","-1.2067","1.212475","1.35795","1.1063644886016846","-3.6257097721099854","-1.9196124649047857","15.3277593","74.1245895","0.103944995","4.24908528375585","0.0"
"4632034c-4bb9-470f-b1c7-c14a0bac6ee5","3","1768025055703","0.231","7.65705","4.1659503","-1.28755","1.171775","1.427525","1.8601125478744507","-1.8803770542144775","-1.5007835006713872","15.3277593","74.1245895","0.103944995","3.041083305775059","0.0"
"4632034c-4bb9-470f-b1c7-c14a0bac6ee5","3","1768025055714","0.231","7.65705","4.1659503","-1.28755","1.171775","1.427525","1.8601125478744507","-1.8803770542144775","-1.5007835006713872","15.3277593","74.1245895","0.103944995","3.041083305775059","0.0"
"4632034c-4bb9-470f-b1c7-c14a0bac6ee5","3","1768025055725","-0.53400004","8.02095","4.47195","-1.369225","1.089825","1.6014625","1.0839064121246338","-1.6166400909423828","-0.8194070434570317","15.3277593","74.1245895","0.103944995","2.111825323447488","0.0"
"4632034c-4bb9-470f-b1c7-c14a0bac6ee5","3","1768025055736","-0.53400004","8.02095","4.47195","-1.369225","1.089825","1.6014625","1.0839064121246338","-1.6166400909423828","-0.8194070434570317","15.3277593","74.1245895","0.103944995","2.111825323447488","0.0"
"4632034c-4bb9-470f-b1c7-c14a0bac6ee5","3","1768025055747","-0.53400004","8.02095","4.47195","-1.369225","1.089825","1.6014625","1.0839064121246338","-1.6166400909423828","-0.8194070434570317","15.3277593","74.1245895","0.103944995","2.111825323447488","0.0"
"4632034c-4bb9-470f-b1c7-c14a0bac6ee5","3","1768025055757","-1.26195","8.15505","4.4149504","-1.38985","1.03895","1.6322625","0.2520902454853058","-1.1076884269714355","-0.5202937698364263","15.3277593","74.1245895","0.103944995","1.2494913965473693","0.0"
"4632034c-4bb9-470f-b1c7-c14a0bac6ee5","3","1768025055768","-1.26195","8.15505","4.4149504","-1.38985","1.03895","1.6322625","0.2520902454853058","-1.1076884269714355","-0.5202937698364263","15.3277593","74.1245895","0.103944995","1.2494913965473693","0.0"
"4632034c-4bb9-470f-b1c7-c14a0bac6ee5","3","1768025055779","-1.7410501","8.404051","4.39605","-1.3380125","1.00375","1.4925625","-0.34180647134780884","-0.655397891998291","-0.19552093505859425","15.3277593","74.1245895","0.103944995","0.7645956426355247","0.0"
