"session_id","window_id","timestamp","accel_x","accel_y","accel_z","gyro_x","gyro_y","gyro_z","linear_accel_x","linear_accel_y","linear_accel_z","latitude","longitude","speed","vibration_intensity","anomaly_score"
"28eafa9b-90ad-4662-9f6c-564b7d59302f","1","1768025136980","-0.16995001","6.1450505","7.76595","0.12705","0.23595","0.0721875","0.2926297187805176","-0.4496113061904907","0.08003181457519482","15.3277663","74.1245301","0.024950275","0.5423906067697729","0.0"
"28eafa9b-90ad-4662-9f6c-564b7d59302f","1","1768025136991","-0.16995001","6.1450505","7.76595","0.12705","0.23595","0.0721875","0.2926297187805176","-0.4496113061904907","0.08003181457519482","15.3277663","74.1245301","0.024950275","0.5423906067697729","0.0"
"28eafa9b-90ad-4662-9f6c-564b7d59302f","1","1768025137001","-0.112950005","6.20205","7.7089505","0.12705","0.23595","0.0721875","0.22224140167236328","-0.36385875940322876","0.07556194305419872","15.3277663","74.1245301","0.024950275","0.43300582519162417","0.0"
"28eafa9b-90ad-4662-9f6c-564b7d59302f","1","1768025137012","-0.132","6.2400002","7.6510506","0.11825","0.2877875","0.1188","0.16146183013916016","-0.395842969417572","0.054625930786132315","15.3277663","74.1245301","0.024950275","0.43098210095485306","0.0"
"28eafa9b-90ad-4662-9f6c-564b7d59302f","1","1768025137023","-0.132","6.2400002","7.6510506","0.11825","0.2877875","0.1188","0.16146183013916016","-0.395842969417572","0.054625930786132315","15.3277663","74.1245301","0.024950275","0.43098210095485306","0.0"
"28eafa9b-90ad-4662-9f6c-564b7d59302f","1","1768025137034","-0.30495003","6.62295","7.49805","0.1307625","0.3042875","0.1557875","-0.16145753860473633","-0.6054134964942932","0.1792253875732417","15.3277663","74.1245301","0.024950275","0.651702215786109","0.0"
"28eafa9b-90ad-4662-9f6c-564b7d59302f","1","1768025137045","-0.30495003","6.62295","7.49805","0.1307625","0.3042875","0.1557875","-0.16145753860473633","-0.6054134964942932","0.1792253875732417","15.3277663","74.1245301","0.024950275","0.651702215786109","0.0"
"28eafa9b-90ad-4662-9f6c-564b7d59302f","1","1768025137055","-0.47700003","6.9679503","7.0189505","0.1747625","0.3144625","0.1775125","-0.6459579467773438","-0.8504407405853271","0.034034194946288565","15.3277663","74.1245301","0.024950275","1.0684893301656144","0.0"
"28eafa9b-90ad-4662-9f6c-564b7d59302f","1","1768025137066","-0.47700003","6.9679503","7.0189505","0.1747625","0.3144625","0.1775125","-0.6459579467773438","-0.8504407405853271","0.034034194946288565","15.3277663","74.1245301","0.024950275","1.0684893301656144","0.0"
"28eafa9b-90ad-4662-9f6c-564b7d59302f","1","1768025137077","-0.324","6.8910003","6.2530503","0.2930125","0.3177625","0.1772375","-1.0547735691070557","-0.7487050294876099","-0.5894570922851567","15.3277663","74.1245301","0.024950275","1.4214662032254413","0.0"
"28eafa9b-90ad-4662-9f6c-564b7d59302f","1","1768025137088","-0.324","6.8910003","6.2530503","0.2930125","0.3177625","0.1772375","-1.0547735691070557","-0.7487050294876099","-0.5894570922851567","15.3277663","74.1245301","0.024950275","1.4214662032254413","0.0"
"28eafa9b-90ad-4662-9f6c-564b7d59302f","1","1768025137098","-0.68805003","7.56195","6.40605","0.38885","0.320375","0.1777875","-1.2642755508422852","-1.1488654613494873","-0.023494300842285654","15.3277663","74.1245301","0.024950275","1.7084602713880712","0.0"
"28eafa9b-90ad-4662-9f6c-564b7d59302f","1","1768025137109","-0.68805003","7.56195","6.40605","0.38885","0.320375","0.1777875","-1.2642755508422852","-1.1488654613494873","-0.023494300842285654","15.3277663","74.1245301","0.024950275","1.7084602713880712","0.0"
"28eafa9b-90ad-4662-9f6c-564b7d59302f","1","1768025137119","-0.68805003","7.56195","6.40605","0.38885","0.320375","0.1777875","-1.2642755508422852","-1.1488654613494873","-0.023494300842285654","15.3277663","74.1245301","0.024950275","1.7084602713880712","0.0"
"28eafa9b-90ad-4662-9f6c-564b7d59302f","1","1768025137130","-0.61095005","7.65705","6.46395","0.5374875","0.353925","0.1694","-1.2019038200378418","-1.0257796049118042","0.104108276367187","15.3277663","74.1245301","0.024950275","1.58355142754592","0.0"
"28eafa9b-90ad-4662-9f6c-564b7d59302f","1","1768025137141","-0.61095005","7.65705","6.46395","0.5374875","0.353925","0.1694","-1.2019038200378418","-1.0257796049118042","0.104108276367187","15.3277663","74.1245301","0.024950275","1.58355142754592","0.0"
"28eafa9b-90ad-4662-9f6c-564b7d59302f","1","1768025137152","-0.49605003","7.5040503","6.3490505","0.6166875","0.3905","0.1662375","-1.0472984313964844","-0.829473614692688","-0.058977661132813","15.3277663","74.1245301","0.024950275","1.3372878696786221","0.0"
"28eafa9b-90ad-4662-9f6c-564b7d59302f","1","1768025137163","-0.49605003","7.5040503","6.3490505","0.6166875","0.3905","0.1662375","-1.0472984313964844","-0.829473614692688","-0.058977661132813","15.3277663","74.1245301","0.024950275","1.3372878696786221","0.0"
"28eafa9b-90ad-4662-9f6c-564b7d59302f","1","1768025137173","-0.24705002","7.3890004","6.387","0.6664625","0.42473748","0.1744875","-0.8455972671508789","-0.4751443862915039","-0.088305053710938","15.3277663","74.1245301","0.024950275","0.9739582683812774","0.0"
"28eafa9b-90ad-4662-9f6c-564b7d59302f","1","1768025137184","-0.24705002","7.3890004","6.387","0.6664625","0.42473748","0.1744875","-0.8455972671508789","-0.4751443862915039","-0.088305053710938","15.3277663","74.1245301","0.024950275","0.9739582683812774","0.0"
"28eafa9b-90ad-4662-9f6c-564b7d59302f","1","1768025137195","0.0010500001","7.5420003","6.8089504","0.6985","0.4547125","0.2145","-0.5775418281555176","-0.09991598129272461","0.3339657211303706","15.3277663","74.1245301","0.024950275","0.6745894080676289","0.0"
"28eafa9b-90ad-4662-9f6c-564b7d59302f","1","1768025137205","0.0010500001","7.5420003","6.8089504","0.6985","0.4547125","0.2145","-0.5775418281555176","-0.09991598129272461","0.3339657211303706","15.3277663","74.1245301","0.024950275","0.6745894080676289","0.0"
"28eafa9b-90ad-4662-9f6c-564b7d59302f","1","1768025137216","0.0010500001","7.5420003","6.8089504","0.6985","0.4547125","0.2145","-0.5775418281555176","-0.09991598129272461","0.3339657211303706","15.3277663","74.1245301","0.024950275","0.6745894080676289","0.0"
"28eafa9b-90ad-4662-9f6c-564b7d59302f","1","1768025137227","0.36495003","7.5810003","6.5599504","0.6997375","0.45993748","0.2563","-0.7214961051940918","0.2627161741256714","0.19240612030029247","15.3277663","74.1245301","0.024950275","0.7915785072161097","0.0"
"28eafa9b-90ad-4662-9f6c-564b7d59302f","1","1768025137238","0.36495003","7.5810003","6.5599504","0.6997375","0.45993748","0.2563","-0.7214961051940918","0.2627161741256714","0.19240612030029247","15.3277663","74.1245301","0.024950275","0.7915785072161097","0.0"
"28eafa9b-90ad-4662-9f6c-564b7d59302f","1","1768025137249","0.55605","7.69605","5.9089503","0.71885","0.451275","0.3119875","-1.1226840019226074","0.3302123546600342","-0.16196208953857472","15.3277663","74.1245301","0.024950275","1.1813937894668258","0.0"
"28eafa9b-90ad-4662-9f6c-564b7d59302f","1","1768025137260","0.55605","7.69605","5.9089503","0.71885","0.451275","0.3119875","-1.1226840019226074","0.3302123546600342","-0.16196208953857472","15.3277663","74.1245301","0.024950275","1.1813937894668258","0.0"
"28eafa9b-90ad-4662-9f6c-564b7d59302f","1","1768025137270","0.49905002","7.90605","5.10405","0.7484125","0.4323","0.333025","-1.626551628112793","0.08172667026519775","-0.5280995941162114","15.3277663","74.1245301","0.024950275","1.7120860459844656","0.0"
"28eafa9b-90ad-4662-9f6c-564b7d59302f","1","1768025137281","0.49905002","7.90605","5.10405","0.7484125","0.4323","0.333025","-1.626551628112793","0.08172667026519775","-0.5280995941162114","15.3277663","74.1245301","0.024950275","1.7120860459844656","0.0"
"28eafa9b-90ad-4662-9f6c-564b7d59302f","1","1768025137292","0.32595003","8.136001","4.9510503","0.797225","0.3795","0.36905","-1.6374285221099854","-0.12838757038116455","-0.4229875183105474","15.3277663","74.1245301","0.024950275","1.696046571852962","0.0"
"28eafa9b-90ad-4662-9f6c-564b7d59302f","1","1768025137303","0.32595003","8.136001","4.9510503","0.797225","0.3795","0.36905","-1.6374285221099854","-0.12838757038116455","-0.4229875183105474","15.3277663","74.1245301","0.024950275","1.696046571852962","0.0"
"28eafa9b-90ad-4662-9f6c-564b7d59302f","1","1768025137313","0.17295001","8.30805","5.334","0.85305","0.2894375","0.4327125","-1.1986818313598633","-0.16606390476226807","-0.00996070861816456","15.3277663","74.1245301","0.024950275","1.210171297384508","0.0"
"28eafa9b-90ad-4662-9f6c-564b7d59302f","1","1768025137324","0.17295001","8.30805","5.334","0.85305","0.2894375","0.4327125","-1.1986818313598633","-0.16606390476226807","-0.00996070861816456","15.3277663","74.1245301","0.024950275","1.210171297384508","0.0"
"28eafa9b-90ad-4662-9f6c-564b7d59302f","1","1768025137335","0.17295001","8.30805","5.334","0.85305","0.2894375","0.4327125","-1.1986818313598633","-0.16606390476226807","-0.00996070861816456","15.3277663","74.1245301","0.024950275","1.210171297384508","0.0"
"28eafa9b-90ad-4662-9f6c-564b7d59302f","1","1768025137346","0.135","8.328","5.3920503","0.8375125","0.2633125","0.4536125","-0.9296548366546631","-0.1600865125656128","0.06715244293212841","15.3277663","74.1245301","0.024950275","0.9457247260236887","0.0"
"28eafa9b-90ad-4662-9f6c-564b7d59302f","1","1768025137356","0.135","8.328","5.3920503","0.8375125","0.2633125","0.4536125","-0.9296548366546631","-0.1600865125656128","0.06715244293212841","15.3277663","74.1245301","0.024950275","0.9457247260236887","0.0"
"28eafa9b-90ad-4662-9f6c-564b7d59302f","1","1768025137367","0.076950006","8.538","4.875","0.7781125","0.242","0.4833125","-1.1553692817687988","-0.3861706256866455","-0.05372005462646534","15.3277663","74.1245301","0.024950275","1.2193817177845647","0.0"
"28eafa9b-90ad-4662-9f6c-564b7d59302f","1","1768025137378","0.076950006","8.538","4.875","0.7781125","0.242","0.4833125","-1.1553692817687988","-0.3861706256866455","-0.05372005462646534","15.3277663","74.1245301","0.024950275","1.2193817177845647","0.0"
"28eafa9b-90ad-4662-9f6c-564b7d59302f","1","1768025137388","-0.132","8.90205","4.434","0.7657375","0.2355375","0.494175","-1.3560397624969482","-0.7789283990859985","0.012357177734374503","15.3277663","74.1245301","0.024950275","1.5638817053143805","0.0"
"28eafa9b-90ad-4662-9f6c-564b7d59302f","1","1768025137399","-0.132","8.90205","4.434","0.7657375","0.2355375","0.494175","-1.3560397624969482","-0.7789283990859985","0.012357177734374503","15.3277663","74.1245301","0.024950275","1.5638817053143805","0.0"
"28eafa9b-90ad-4662-9f6c-564b7d59302f","1","1768025137410","-0.075","9.055051","4.4149504","0.7921375","0.22893749","0.4747875","-1.2397775650024414","-0.7537097930908203","0.15926498413085888","15.3277663","74.1245301","0.024950275","1.4596205664673927","0.0"
"28eafa9b-90ad-4662-9f6c-564b7d59302f","1","1768025137420","-0.075","9.055051","4.4149504","0.7921375","0.22893749","0.4747875","-1.2397775650024414","-0.7537097930908203","0.15926498413085888","15.3277663","74.1245301","0.024950275","1.4596205664673927","0.0"
"28eafa9b-90ad-4662-9f6c-564b7d59302f","1","1768025137431","-0.075","9.055051","4.4149504","0.7921375","0.22893749","0.4747875","-1.2397775650024414","-0.7537097930908203","0.15926498413085888","15.3277663","74.1245301","0.024950275","1.4596205664673927","0.0"
"28eafa9b-90ad-4662-9f6c-564b7d59302f","1","1768025137441","-0.22800002","9.534","4.49205","0.8724375","0.22385","0.4184125","-1.1255731582641602","-0.9656975269317627","0.6268677139282222","15.3277663","74.1245301","0.024950275","1.6101086233209465","0.0"
"28eafa9b-90ad-4662-9f6c-564b7d59302f","1","1768025137452","-0.22800002","9.534","4.49205","0.8724375","0.22385","0.4184125","-1.1255731582641602","-0.9656975269317627","0.6268677139282222","15.3277663","74.1245301","0.024950275","1.6101086233209465","0.0"
"28eafa9b-90ad-4662-9f6c-564b7d59302f","1","1768025137463","0.076950006","9.74505","4.51095","0.9466875","0.2195875","0.3641","-1.1007964611053467","-0.7002619504928589","0.8491968536376948","15.3277663","74.1245301","0.024950275","1.5566807457915957","0.0"
"28eafa9b-90ad-4662-9f6c-564b7d59302f","1","1768025137474","0.076950006","9.74505","4.51095","0.9466875","0.2195875","0.3641","-1.1007964611053467","-0.7002619504928589","0.8491968536376948","15.3277663","74.1245301","0.024950275","1.5566807457915957","0.0"
"28eafa9b-90ad-4662-9f6c-564b7d59302f","1","1768025137485","0.01995","9.936001","4.3000503","1.02575","0.2083125","0.285175","-1.0650136470794678","-0.8183928728103638","0.9329466247558589","15.3277663","74.1245301","0.024950275","1.6353624574924235","0.0"
"28eafa9b-90ad-4662-9f6c-564b7d59302f","1","1768025137495","0.01995","9.936001","4.3000503","1.02575","0.2083125","0.285175","-1.0650136470794678","-0.8183928728103638","0.9329466247558589","15.3277663","74.1245301","0.024950275","1.6353624574924235","0.0"
"28eafa9b-90ad-4662-9f6c-564b7d59302f","1","1768025137506","-0.094050005","10.20405","3.7830002","1.037575","0.20899999","0.245025","-1.2645082473754883","-1.097212314605713","0.943590583801269","15.3277663","74.1245301","0.024950275","1.9217750026580829","0.0"
"28eafa9b-90ad-4662-9f6c-564b7d59302f","1","1768025137517","-0.094050005","10.20405","3.7830002","1.037575","0.20899999","0.245025","-1.2645082473754883","-1.097212314605713","0.943590583801269","15.3277663","74.1245301","0.024950275","1.9217750026580829","0.0"
"28eafa9b-90ad-4662-9f6c-564b7d59302f","1","1768025137527","-0.094050005","10.20405","3.7830002","1.037575","0.20899999","0.245025","-1.2645082473754883","-1.097212314605713","0.943590583801269","15.3277663","74.1245301","0.024950275","1.9217750026580829","0.0"
"28eafa9b-90ad-4662-9f6c-564b7d59302f","1","1768025137538","-0.28500003","10.375951","3.80205","1.018325","0.2212375","0.19195","-0.9617183208465576","-1.2086931467056274","1.1358360671997065","15.3277663","74.1245301","0.024950275","1.9172805801699369","0.0"
"28eafa9b-90ad-4662-9f6c-564b7d59302f","1","1768025137549","-0.28500003","10.375951","3.80205","1.018325","0.2212375","0.19195","-0.9617183208465576","-1.2086931467056274","1.1358360671997065","15.3277663","74.1245301","0.024950275","1.9172805801699369","0.0"
"28eafa9b-90ad-4662-9f6c-564b7d59302f","1","1768025137559","-0.43905002","10.20405","4.5870004","0.9648375","0.25795","0.099825","0.06264090538024902","-0.8916807174682617","1.3505081558227534","15.3277663","74.1245301","0.024950275","1.6195340885190856","0.0"
"28eafa9b-90ad-4662-9f6c-564b7d59302f","1","1768025137570","-0.43905002","10.20405","4.5870004","0.9648375","0.25795","0.099825","0.06264090538024902","-0.8916807174682617","1.3505081558227534","15.3277663","74.1245301","0.024950275","1.6195340885190856","0.0"
"28eafa9b-90ad-4662-9f6c-564b7d59302f","1","1768025137581","-0.22800002","9.802051","5.2189503","0.908875","0.2737625","0.0444125","0.8418302536010742","-0.23540067672729492","1.262738647460937","15.3277663","74.1245301","0.024950275","1.5357735986378962","0.0"
"28eafa9b-90ad-4662-9f6c-564b7d59302f","1","1768025137591","-0.22800002","9.802051","5.2189503","0.908875","0.2737625","0.0444125","0.8418302536010742","-0.23540067672729492","1.262738647460937","15.3277663","74.1245301","0.024950275","1.5357735986378962","0.0"
"28eafa9b-90ad-4662-9f6c-564b7d59302f","1","1768025137602","0.42195","9.151051","5.2380004","0.77055","0.265375","0.0042625","1.023669958114624","0.657275915145874","0.6721996688842768","15.3277663","74.1245301","0.024950275","1.3898792057676717","0.0"
"28eafa9b-90ad-4662-9f6c-564b7d59302f","1","1768025137613","0.42195","9.151051","5.2380004","0.77055","0.265375","0.0042625","1.023669958114624","0.657275915145874","0.6721996688842768","15.3277663","74.1245301","0.024950275","1.3898792057676717","0.0"
"28eafa9b-90ad-4662-9f6c-564b7d59302f","1","1768025137623","0.42195","9.151051","5.2380004","0.77055","0.265375","0.0042625","1.023669958114624","0.657275915145874","0.6721996688842768","15.3277663","74.1245301","0.024950275","1.3898792057676717","0.0"
"28eafa9b-90ad-4662-9f6c-564b7d59302f","1","1768025137634","0.86295","8.481","4.72095","0.6488625","0.2358125","0.0125124995","0.6853182315826416","1.0151089429855347","-0.1425643539428716","15.3277663","74.1245301","0.024950275","1.2330579222745042","0.0"
"28eafa9b-90ad-4662-9f6c-564b7d59302f","1","1768025137645","0.86295","8.481","4.72095","0.6488625","0.2358125","0.0125124995","0.6853182315826416","1.0151089429855347","-0.1425643539428716","15.3277663","74.1245301","0.024950275","1.2330579222745042","0.0"
"28eafa9b-90ad-4662-9f6c-564b7d59302f","1","1768025137656","0.99705005","8.079","4.6639504","0.51645","0.21945","0.030524999","0.8009610176086426","1.2567830085754395","-0.5473991012573247","15.3277663","74.1245301","0.024950275","1.5876674268970603","0.0"
"28eafa9b-90ad-4662-9f6c-564b7d59302f","1","1768025137666","0.99705005","8.079","4.6639504","0.51645","0.21945","0.030524999","0.8009610176086426","1.2567830085754395","-0.5473991012573247","15.3277663","74.1245301","0.024950275","1.5876674268970603","0.0"
"28eafa9b-90ad-4662-9f6c-564b7d59302f","1","1768025137677","1.131","7.8490505","4.9890003","0.348975","0.1458875","0.1332375","1.1414663791656494","1.6074442863464355","-0.6508479690551763","15.3277663","74.1245301","0.024950275","2.0761564746657672","0.0"
"28eafa9b-90ad-4662-9f6c-564b7d59302f","1","1768025137687","1.131","7.8490505","4.9890003","0.348975","0.1458875","0.1332375","1.1414663791656494","1.6074442863464355","-0.6508479690551763","15.3277663","74.1245301","0.024950275","2.0761564746657672","0.0"
"28eafa9b-90ad-4662-9f6c-564b7d59302f","1","1768025137698","1.284","7.96395","4.85505","0.239525","0.06875","0.2344375","0.9670946598052979","1.6580153703689575","-0.5926051712036138","15.3277663","74.1245301","0.024950275","2.0088474153954303","0.0"
"28eafa9b-90ad-4662-9f6c-564b7d59302f","1","1768025137709","1.284","7.96395","4.85505","0.239525","0.06875","0.2344375","0.9670946598052979","1.6580153703689575","-0.5926051712036138","15.3277663","74.1245301","0.024950275","2.0088474153954303","0.0"
"28eafa9b-90ad-4662-9f6c-564b7d59302f","1","1768025137719","1.284","7.96395","4.85505","0.239525","0.06875","0.2344375","0.9670946598052979","1.6580153703689575","-0.5926051712036138","15.3277663","74.1245301","0.024950275","2.0088474153954303","0.0"
"28eafa9b-90ad-4662-9f6c-564b7d59302f","1","1768025137730","1.131","8.232","4.3380003","0.023375","0.0218625","0.318175","0.5832014083862305","1.209686040878296","-0.5331588363647466","15.3277663","74.1245301","0.024950275","1.444895340512004","0.0"
"28eafa9b-90ad-4662-9f6c-564b7d59302f","1","1768025137741","1.131","8.232","4.3380003","0.023375","0.0218625","0.318175","0.5832014083862305","1.209686040878296","-0.5331588363647466","15.3277663","74.1245301","0.024950275","1.444895340512004","0.0"
"28eafa9b-90ad-4662-9f6c-564b7d59302f","1","1768025137752","0.80505","8.328","3.9750001","-0.0721875","-0.00715","0.3383875","0.4387822151184082","0.6801033020019531","-0.5823646163940435","15.3277663","74.1245301","0.024950275","0.997105250274994","0.0"
"28eafa9b-90ad-4662-9f6c-564b7d59302f","1","1768025137763","0.80505","8.328","3.9750001","-0.0721875","-0.00715","0.3383875","0.4387822151184082","0.6801033020019531","-0.5823646163940435","15.3277663","74.1245301","0.024950275","0.997105250274994","0.0"
"28eafa9b-90ad-4662-9f6c-564b7d59302f","1","1768025137774","0.51795","8.30805","4.35795","-0.143275","-0.0339625","0.3427875","0.9030625820159912","0.5241159200668335","-0.47225528717041065","15.3277663","74.1245301","0.024950275","1.145968839439057","0.0"
"28eafa9b-90ad-4662-9f6c-564b7d59302f","1","1768025137785","0.51795","8.30805","4.35795","-0.143275","-0.0339625","0.3427875","0.9030625820159912","0.5241159200668335","-0.47225528717041065","15.3277663","74.1245301","0.024950275","1.145968839439057","0.0"
"28eafa9b-90ad-4662-9f6c-564b7d59302f","1","1768025137795","0.51795","8.30805","4.35795","-0.143275","-0.0339625","0.3427875","0.9030625820159912","0.5241159200668335","-0.47225528717041065","15.3277663","74.1245301","0.024950275","1.145968839439057","0.0"
"28eafa9b-90ad-4662-9f6c-564b7d59302f","1","1768025137806","0.51795","8.30805","4.35795","-0.143275","-0.0339625","0.3427875","0.9030625820159912","0.5241159200668335","-0.47225528717041065","15.3277663","74.1245301","0.024950275","1.145968839439057","0.0"
"28eafa9b-90ad-4662-9f6c-564b7d59302f","1","1768025137817","0.49905002","8.00205","4.9890003","-0.24653749","-0.0556875","0.3554375","1.4971909523010254","0.758965015411377","-0.5172944641113286","15.3277663","74.1245301","0.024950275","1.7564743678376493","0.0"
"28eafa9b-90ad-4662-9f6c-564b7d59302f","1","1768025137827","0.786","7.5420003","5.62095","-0.3146","-0.0691625","0.3705625","1.9594478607177734","1.2777748107910156","-0.6654658889770513","15.3277663","74.1245301","0.024950275","2.4320750883464703","0.0"
"28eafa9b-90ad-4662-9f6c-564b7d59302f","1","1768025137838","0.786","7.5420003","5.62095","-0.3146","-0.0691625","0.3705625","1.9594478607177734","1.2777748107910156","-0.6654658889770513","15.3277663","74.1245301","0.024950275","2.4320750883464703","0.0"
"28eafa9b-90ad-4662-9f6c-564b7d59302f","1","1768025137849","1.15005","7.00605","5.56395","-0.4002625","-0.100925","0.3818375","1.8463387489318848","1.5776395797729492","-1.1228271102905278","15.3277663","74.1245301","0.024950275","2.6755661343119335","0.0"
"28eafa9b-90ad-4662-9f6c-564b7d59302f","1","1768025137859","1.15005","7.00605","5.56395","-0.4002625","-0.100925","0.3818375","1.8463387489318848","1.5776395797729492","-1.1228271102905278","15.3277663","74.1245301","0.024950275","2.6755661343119335","0.0"
"28eafa9b-90ad-4662-9f6c-564b7d59302f","1","1768025137870","1.3800001","6.681","4.6639504","-0.4439875","-0.1313125","0.3713875","1.0593419075012207","1.3666421175003052","-1.728991088867188","15.3277663","74.1245301","0.024950275","2.4452660672606137","0.0"
"28eafa9b-90ad-4662-9f6c-564b7d59302f","1","1768025137881","1.3800001","6.681","4.6639504","-0.4439875","-0.1313125","0.3713875","1.0593419075012207","1.3666421175003052","-1.728991088867188","15.3277663","74.1245301","0.024950275","2.4452660672606137","0.0"
"28eafa9b-90ad-4662-9f6c-564b7d59302f","1","1768025137892","1.41795","6.7570505","4.39605","-0.4580125","-0.15675","0.3480125","0.7598915100097656","1.1532715559005737","-1.742404518127442","15.3277663","74.1245301","0.024950275","2.2233856825627836","0.0"
"28eafa9b-90ad-4662-9f6c-564b7d59302f","1","1768025137902","1.41795","6.7570505","4.39605","-0.4580125","-0.15675","0.3480125","0.7598915100097656","1.1532715559005737","-1.742404518127442","15.3277663","74.1245301","0.024950275","2.2233856825627836","0.0"
"28eafa9b-90ad-4662-9f6c-564b7d59302f","1","1768025137913","1.30305","7.04505","4.0129504","-0.43353748","-0.24007499","0.2682625","0.371471643447876","0.7026920318603516","-1.6367087936401372","15.3277663","74.1245301","0.024950275","1.8195007416060178","0.0"
"28eafa9b-90ad-4662-9f6c-564b7d59302f","1","1768025137923","1.30305","7.04505","4.0129504","-0.43353748","-0.24007499","0.2682625","0.371471643447876","0.7026920318603516","-1.6367087936401372","15.3277663","74.1245301","0.024950275","1.8195007416060178","0.0"
"28eafa9b-90ad-4662-9f6c-564b7d59302f","1","1768025137934","1.30305","7.04505","4.0129504","-0.43353748","-0.24007499","0.2682625","0.371471643447876","0.7026920318603516","-1.6367087936401372","15.3277663","74.1245301","0.024950275","1.8195007416060178","0.0"
"28eafa9b-90ad-4662-9f6c-564b7d59302f","1","1768025137945","1.0350001","7.3699503","3.6870003","-0.3939375","-0.3037375","0.1909875","0.08932852745056152","0.14582598209381104","-1.506257591247559","15.3277663","74.1245301","0.024950275","1.515934277619254","0.0"
"28eafa9b-90ad-4662-9f6c-564b7d59302f","1","1768025137956","1.0350001","7.3699503","3.6870003","-0.3939375","-0.3037375","0.1909875","0.08932852745056152","0.14582598209381104","-1.506257591247559","15.3277663","74.1245301","0.024950275","1.515934277619254","0.0"
"28eafa9b-90ad-4662-9f6c-564b7d59302f","1","1768025137967","0.74805003","7.8109503","3.59205","-0.20927499","-0.374275","0.0644875","-0.03953433036804199","-0.36395370960235596","-1.1879745101928716","15.3277663","74.1245301","0.024950275","1.2431044617726053","0.0"
"28eafa9b-90ad-4662-9f6c-564b7d59302f","2","1768025137978","0.74805003","7.8109503","3.59205","-0.20927499","-0.374275","0.0644875","-0.03953433036804199","-0.36395370960235596","-1.1879745101928716","15.3277637","74.1245285","0.0860289","1.2431044617726053","0.0"
"28eafa9b-90ad-4662-9f6c-564b7d59302f","2","1768025137991","0.69000006","8.193001","3.63","-0.093775","-0.4015","-1.375E-4","-0.12559247016906738","-0.5697983503341675","-0.8412862396240239","15.3277637","74.1245285","0.0860289","1.0238194008649364","0.0"
"28eafa9b-90ad-4662-9f6c-564b7d59302f","2","1768025138002","0.69000006","8.193001","3.63","-0.093775","-0.4015","-1.375E-4","-0.12559247016906738","-0.5697983503341675","-0.8412862396240239","15.3277637","74.1245285","0.0860289","1.0238194008649364","0.0"
"28eafa9b-90ad-4662-9f6c-564b7d59302f","2","1768025138018","0.51795","8.575951","4.06995","-0.050049998","-0.4010875","-0.0539","0.1825578212738037","-0.7103067636489868","-0.33150726318359425","15.3277637","74.1245285","0.0860289","0.8048354627731139","0.0"
"28eafa9b-90ad-4662-9f6c-564b7d59302f","2","1768025138030","0.51795","8.575951","4.06995","-0.050049998","-0.4010875","-0.0539","0.1825578212738037","-0.7103067636489868","-0.33150726318359425","15.3277637","74.1245285","0.0860289","0.8048354627731139","0.0"
"28eafa9b-90ad-4662-9f6c-564b7d59302f","2","1768025138041","0.48000002","8.82495","4.60605","-0.0163625","-0.3925625","-0.1291125","0.5372011661529541","-0.6379690170288086","0.12127632141113232","15.3277637","74.1245285","0.0860289","0.8427914960058711","0.0"
"28eafa9b-90ad-4662-9f6c-564b7d59302f","2","1768025138051","0.48000002","8.82495","4.60605","-0.0163625","-0.3925625","-0.1291125","0.5372011661529541","-0.6379690170288086","0.12127632141113232","15.3277637","74.1245285","0.0860289","0.8427914960058711","0.0"
"28eafa9b-90ad-4662-9f6c-564b7d59302f","2","1768025138063","0.42195","9.342","5.0280004","0.0055","-0.40094998","-0.160875","0.718843936920166","-0.7059550285339355","0.7596125030517573","15.3277637","74.1245285","0.0860289","1.2617924800662703","0.0"
"28eafa9b-90ad-4662-9f6c-564b7d59302f","2","1768025138074","0.42195","9.342","5.0280004","0.0055","-0.40094998","-0.160875","0.718843936920166","-0.7059550285339355","0.7596125030517573","15.3277637","74.1245285","0.0860289","1.2617924800662703","0.0"
"28eafa9b-90ad-4662-9f6c-564b7d59302f","2","1768025138085","0.42195","10.147051","4.96995","0.142725","-0.415525","-0.236225","0.3833737373352051","-0.9594160318374634","1.4493822479248042","15.3277637","74.1245285","0.0860289","1.779933550789092","0.0"
"28eafa9b-90ad-4662-9f6c-564b7d59302f","2","1768025138095","0.42195","10.147051","4.96995","0.142725","-0.415525","-0.236225","0.3833737373352051","-0.9594160318374634","1.4493822479248042","15.3277637","74.1245285","0.0860289","1.779933550789092","0.0"
"28eafa9b-90ad-4662-9f6c-564b7d59302f","2","1768025138106","0.42195","10.147051","4.96995","0.142725","-0.415525","-0.236225","0.3833737373352051","-0.9594160318374634","1.4493822479248042","15.3277637","74.1245285","0.0860289","1.779933550789092","0.0"
"28eafa9b-90ad-4662-9f6c-564b7d59302f","2","1768025138117","0.28800002","10.740001","4.96995","0.290125","-0.419375","-0.29273748","0.25684070587158203","-1.2160331010818481","1.962267341613769","15.3277637","74.1245285","0.0860289","2.322756287491935","0.0"
"28eafa9b-90ad-4662-9f6c-564b7d59302f","2","1768025138128","0.28800002","10.740001","4.96995","0.290125","-0.419375","-0.29273748","0.25684070587158203","-1.2160331010818481","1.962267341613769","15.3277637","74.1245285","0.0860289","2.322756287491935","0.0"
"28eafa9b-90ad-4662-9f6c-564b7d59302f","2","1768025138138","-0.16995001","10.951051","5.8890004","0.399025","-0.397375","-0.3471875","1.2019295692443848","-1.3545135259628296","2.4926571273803706","15.3277637","74.1245285","0.0860289","3.0810194962253012","0.0"
"28eafa9b-90ad-4662-9f6c-564b7d59302f","2","1768025138149","-0.16995001","10.951051","5.8890004","0.399025","-0.397375","-0.3471875","1.2019295692443848","-1.3545135259628296","2.4926571273803706","15.3277637","74.1245285","0.0860289","3.0810194962253012","0.0"
"28eafa9b-90ad-4662-9f6c-564b7d59302f","2","1768025138160","-0.87900007","11.563951","6.7320004","0.4657125","-0.2930125","-0.471075","2.0560615062713623","-1.8429690599441528","3.3122515106201167","15.3277637","74.1245285","0.0860289","4.312184358661807","0.0"
"28eafa9b-90ad-4662-9f6c-564b7d59302f","2","1768025138170","-0.87900007","11.563951","6.7320004","0.4657125","-0.2930125","-0.471075","2.0560615062713623","-1.8429690599441528","3.3122515106201167","15.3277637","74.1245285","0.0860289","4.312184358661807","0.0"
"28eafa9b-90ad-4662-9f6c-564b7d59302f","2","1768025138181","-1.64505","10.969951","6.40605","0.344575","-0.1683","-0.576675","2.3341445922851562","-2.37188720703125","2.5596975708007808","15.3277637","74.1245285","0.0860289","4.198348669957745","0.0"
"28eafa9b-90ad-4662-9f6c-564b7d59302f","2","1768025138192","-1.64505","10.969951","6.40605","0.344575","-0.1683","-0.576675","2.3341445922851562","-2.37188720703125","2.5596975708007808","15.3277637","74.1245285","0.0860289","4.198348669957745","0.0"
"28eafa9b-90ad-4662-9f6c-564b7d59302f","2","1768025138202","-1.5300001","9.783","6.46395","0.1557875","-0.024475","-0.702075","2.7680749893188477","-1.8221244812011719","1.541134300231933","15.3277637","74.1245285","0.0860289","3.654787504470889","0.0"
"28eafa9b-90ad-4662-9f6c-564b7d59302f","2","1768025138213","-1.5300001","9.783","6.46395","0.1557875","-0.024475","-0.702075","2.7680749893188477","-1.8221244812011719","1.541134300231933","15.3277637","74.1245285","0.0860289","3.654787504470889","0.0"
"28eafa9b-90ad-4662-9f6c-564b7d59302f","2","1768025138225","-0.68805003","8.920951","6.1579504","0.0143","0.032175","-0.73645","2.4519999027252197","-0.7784337997436523","0.7426714324951167","15.3277637","74.1245285","0.0860289","2.6776526212696403","0.0"
"28eafa9b-90ad-4662-9f6c-564b7d59302f","2","1768025138235","-0.68805003","8.920951","6.1579504","0.0143","0.032175","-0.73645","2.4519999027252197","-0.7784337997436523","0.7426714324951167","15.3277637","74.1245285","0.0860289","2.6776526212696403","0.0"
"28eafa9b-90ad-4662-9f6c-564b7d59302f","2","1768025138246","-0.68805003","8.920951","6.1579504","0.0143","0.032175","-0.73645","2.4519999027252197","-0.7784337997436523","0.7426714324951167","15.3277637","74.1245285","0.0860289","2.6776526212696403","0.0"
"28eafa9b-90ad-4662-9f6c-564b7d59302f","2","1768025138257","-0.381","8.11695","5.62095","-0.13035","0.0551375","-0.7194","2.0212419033050537","-0.3270857334136963","-0.1439395523071294","15.3277637","74.1245285","0.0860289","2.052589219351351","0.0"
"28eafa9b-90ad-4662-9f6c-564b7d59302f","2","1768025138268","-0.381","8.11695","5.62095","-0.13035","0.0551375","-0.7194","2.0212419033050537","-0.3270857334136963","-0.1439395523071294","15.3277637","74.1245285","0.0860289","2.052589219351351","0.0"
"28eafa9b-90ad-4662-9f6c-564b7d59302f","2","1768025138279","-0.40005","7.5810003","4.85505","-0.2613875","0.0485375","-0.6545","1.4429638385772705","-0.33709657192230225","-0.9213920211791997","15.3277637","74.1245285","0.0860289","1.7449189078395906","0.0"
"28eafa9b-90ad-4662-9f6c-564b7d59302f","2","1768025138289","-0.40005","7.5810003","4.85505","-0.2613875","0.0485375","-0.6545","1.4429638385772705","-0.33709657192230225","-0.9213920211791997","15.3277637","74.1245285","0.0860289","1.7449189078395906","0.0"
"28eafa9b-90ad-4662-9f6c-564b7d59302f","2","1768025138300","-0.34305","7.3890004","4.5870004","-0.2556125","0.0352","-0.611875","1.1608264446258545","-0.22978055477142334","-1.187050399780274","15.3277637","74.1245285","0.0860289","1.676128213924064","0.0"
"28eafa9b-90ad-4662-9f6c-564b7d59302f","2","1768025138310","-0.34305","7.3890004","4.5870004","-0.2556125","0.0352","-0.611875","1.1608264446258545","-0.22978055477142334","-1.187050399780274","15.3277637","74.1245285","0.0860289","1.676128213924064","0.0"
"28eafa9b-90ad-4662-9f6c-564b7d59302f","2","1768025138321","-0.22800002","7.1790004","4.932","-0.2534125","0.0191125","-0.5435375","1.4025599956512451","0.09551489353179932","-1.2112584686279302","15.3277637","74.1245285","0.0860289","1.8556520994277161","0.0"
"28eafa9b-90ad-4662-9f6c-564b7d59302f","2","1768025138331","-0.22800002","7.1790004","4.932","-0.2534125","0.0191125","-0.5435375","1.4025599956512451","0.09551489353179932","-1.2112584686279302","15.3277637","74.1245285","0.0860289","1.8556520994277161","0.0"
"28eafa9b-90ad-4662-9f6c-564b7d59302f","2","1768025138342","-0.22800002","7.1790004","4.932","-0.2534125","0.0191125","-0.5435375","1.4025599956512451","0.09551489353179932","-1.2112584686279302","15.3277637","74.1245285","0.0860289","1.8556520994277161","0.0"
"28eafa9b-90ad-4662-9f6c-564b7d59302f","2","1768025138352","-0.26595002","7.04505","5.14305","-0.3315125","0.025024999","-0.49568748","1.5535542964935303","0.20859861373901367","-1.2252812957763677","15.3277637","74.1245285","0.0860289","1.9895624110810801","0.0"
"28eafa9b-90ad-4662-9f6c-564b7d59302f","2","1768025138363","-0.26595002","7.04505","5.14305","-0.3315125","0.025024999","-0.49568748","1.5535542964935303","0.20859861373901367","-1.2252812957763677","15.3277637","74.1245285","0.0860289","1.9895624110810801","0.0"
"28eafa9b-90ad-4662-9f6c-564b7d59302f","2","1768025138374","-0.112950005","6.681","5.3149505","-0.4263875","0.0331375","-0.4497625","1.700465202331543","0.5057377815246582","-1.458361206054688","15.3277637","74.1245285","0.0860289","2.29655612065702","0.0"
"28eafa9b-90ad-4662-9f6c-564b7d59302f","2","1768025138384","-0.112950005","6.681","5.3149505","-0.4263875","0.0331375","-0.4497625","1.700465202331543","0.5057377815246582","-1.458361206054688","15.3277637","74.1245285","0.0860289","2.29655612065702","0.0"
"28eafa9b-90ad-4662-9f6c-564b7d59302f","2","1768025138395","0.192","6.1639504","5.37195","-0.55495","0.033275","-0.37454998","1.7686278820037842","0.9163570404052734","-1.8777084922790532","15.3277637","74.1245285","0.0860289","2.737433833442989","0.0"
"28eafa9b-90ad-4662-9f6c-564b7d59302f","2","1768025138405","0.192","6.1639504","5.37195","-0.55495","0.033275","-0.37454998","1.7686278820037842","0.9163570404052734","-1.8777084922790532","15.3277637","74.1245285","0.0860289","2.737433833442989","0.0"
"28eafa9b-90ad-4662-9f6c-564b7d59302f","2","1768025138416","0.192","6.1639504","5.37195","-0.55495","0.033275","-0.37454998","1.7686278820037842","0.9163570404052734","-1.8777084922790532","15.3277637","74.1245285","0.0860289","2.737433833442989","0.0"
"28eafa9b-90ad-4662-9f6c-564b7d59302f","2","1768025138426","0.30705002","5.781","4.89405","-0.64735","0.0400125","-0.306625","1.3850617408752441","0.9626642465591431","-2.4194083786010747","15.3277637","74.1245285","0.0860289","2.9493482975201024","0.0"
"28eafa9b-90ad-4662-9f6c-564b7d59302f","2","1768025138436","0.30705002","5.781","4.89405","-0.64735","0.0400125","-0.306625","1.3850617408752441","0.9626642465591431","-2.4194083786010747","15.3277637","74.1245285","0.0860289","2.9493482975201024","0.0"
"28eafa9b-90ad-4662-9f6c-564b7d59302f","2","1768025138448","0.25005","5.32095","4.22295","-0.66275","-0.039049998","-0.108075","0.9315481185913086","0.7892410755157471","-3.1228733634948735","15.3277637","74.1245285","0.0860289","3.3530614991315093","0.0"
"28eafa9b-90ad-4662-9f6c-564b7d59302f","2","1768025138458","0.25005","5.32095","4.22295","-0.66275","-0.039049998","-0.108075","0.9315481185913086","0.7892410755157471","-3.1228733634948735","15.3277637","74.1245285","0.0860289","3.3530614991315093","0.0"
"28eafa9b-90ad-4662-9f6c-564b7d59302f","2","1768025138469","0.21195","5.1870003","3.5340002","-0.6193","-0.08745","0.0419375","0.333756685256958","0.5622212886810303","-3.564076480865479","15.3277637","74.1245285","0.0860289","3.6235517746899006","0.0"
"28eafa9b-90ad-4662-9f6c-564b7d59302f","2","1768025138479","0.21195","5.1870003","3.5340002","-0.6193","-0.08745","0.0419375","0.333756685256958","0.5622212886810303","-3.564076480865479","15.3277637","74.1245285","0.0860289","3.6235517746899006","0.0"
"28eafa9b-90ad-4662-9f6c-564b7d59302f","2","1768025138490","0.15405001","5.4360003","3.2659502","-0.5091625","-0.102575","0.12773749","-0.07834577560424805","0.3676166534423828","-3.4776235198974614","15.3277637","74.1245285","0.0860289","3.4978772720876323","0.0"
"28eafa9b-90ad-4662-9f6c-564b7d59302f","2","1768025138501","0.15405001","5.4360003","3.2659502","-0.5091625","-0.102575","0.12773749","-0.07834577560424805","0.3676166534423828","-3.4776235198974614","15.3277637","74.1245285","0.0860289","3.4978772720876323","0.0"
"28eafa9b-90ad-4662-9f6c-564b7d59302f","2","1768025138511","0.15405001","5.4360003","3.2659502","-0.5091625","-0.102575","0.12773749","-0.07834577560424805","0.3676166534423828","-3.4776235198974614","15.3277637","74.1245285","0.0860289","3.4978772720876323","0.0"
"28eafa9b-90ad-4662-9f6c-564b7d59302f","2","1768025138522","-0.24705002","5.8380003","4.49205","-0.3037375","-0.1508375","0.1661","0.7615313529968262","0.20639961957931519","-2.4820209121704107","15.3277637","74.1245285","0.0860289","2.6044113755339997","0.0"
"28eafa9b-90ad-4662-9f6c-564b7d59302f","2","1768025138532","-0.24705002","5.8380003","4.49205","-0.3037375","-0.1508375","0.1661","0.7615313529968262","0.20639961957931519","-2.4820209121704107","15.3277637","74.1245285","0.0860289","2.6044113755339997","0.0"
"28eafa9b-90ad-4662-9f6c-564b7d59302f","2","1768025138543","-0.49605003","6.2590504","6.2530503","-0.272525","-0.164175","0.154275","1.9875636100769043","0.30918920040130615","-1.1800284957885747","15.3277637","74.1245285","0.0860289","2.3320536693266263","0.0"
"28eafa9b-90ad-4662-9f6c-564b7d59302f","2","1768025138554","-0.49605003","6.2590504","6.2530503","-0.272525","-0.164175","0.154275","1.9875636100769043","0.30918920040130615","-1.1800284957885747","15.3277637","74.1245285","0.0860289","2.3320536693266263","0.0"
"28eafa9b-90ad-4662-9f6c-564b7d59302f","2","1768025138564","-0.24705002","6.393","8.72295","-0.3707","-0.134475","0.12045","3.6899476051330566","1.0714075565338135","0.3022550964355464","15.3277637","74.1245285","0.0860289","3.854216603169339","0.0"
"28eafa9b-90ad-4662-9f6c-564b7d59302f","2","1768025138575","-0.24705002","6.393","8.72295","-0.3707","-0.134475","0.12045","3.6899476051330566","1.0714075565338135","0.3022550964355464","15.3277637","74.1245285","0.0860289","3.854216603169339","0.0"
"28eafa9b-90ad-4662-9f6c-564b7d59302f","2","1768025138585","-0.24705002","7.00605","11.883","-0.4673625","-0.1021625","0.104225","5.7718000411987305","1.6836122274398804","2.607859077453613","15.3277637","74.1245285","0.0860289","6.553560468617341","0.0"
"28eafa9b-90ad-4662-9f6c-564b7d59302f","2","1768025138596","-0.24705002","7.00605","11.883","-0.4673625","-0.1021625","0.104225","5.7718000411987305","1.6836122274398804","2.607859077453613","15.3277637","74.1245285","0.0860289","6.553560468617341","0.0"
"28eafa9b-90ad-4662-9f6c-564b7d59302f","2","1768025138606","-0.24705002","7.00605","11.883","-0.4673625","-0.1021625","0.104225","5.7718000411987305","1.6836122274398804","2.607859077453613","15.3277637","74.1245285","0.0860289","6.553560468617341","0.0"
"28eafa9b-90ad-4662-9f6c-564b7d59302f","2","1768025138616","0.26895002","6.9300003","13.798051","-1.1710875","0.00385","0.1615625","7.039836883544922","2.564084053039551","3.6936897659301753","15.3277637","74.1245285","0.0860289","8.35327327847644","0.0"
"28eafa9b-90ad-4662-9f6c-564b7d59302f","2","1768025138627","0.26895002","6.9300003","13.798051","-1.1710875","0.00385","0.1615625","7.039836883544922","2.564084053039551","3.6936897659301753","15.3277637","74.1245285","0.0860289","8.35327327847644","0.0"
"28eafa9b-90ad-4662-9f6c-564b7d59302f","2","1768025138637","0.61395","8.15505","12.592051","-1.572175","0.0221375","0.2011625","4.939394474029541","2.2787277698516846","4.184688034057617","15.3277637","74.1245285","0.0860289","6.8630774410283175","0.0"
"28eafa9b-90ad-4662-9f6c-564b7d59302f","2","1768025138648","0.61395","8.15505","12.592051","-1.572175","0.0221375","0.2011625","4.939394474029541","2.2787277698516846","4.184688034057617","15.3277637","74.1245285","0.0860289","6.8630774410283175","0.0"
"28eafa9b-90ad-4662-9f6c-564b7d59302f","2","1768025138658","1.59","8.059051","8.24505","-1.5998125","-0.0022","0.187","0.9459967613220215","2.0416932106018066","1.609012069702148","15.3277637","74.1245285","0.0860289","2.7662864781320926","0.0"
"28eafa9b-90ad-4662-9f6c-564b7d59302f","2","1768025138669","1.59","8.059051","8.24505","-1.5998125","-0.0022","0.187","0.9459967613220215","2.0416932106018066","1.609012069702148","15.3277637","74.1245285","0.0860289","2.7662864781320926","0.0"
"28eafa9b-90ad-4662-9f6c-564b7d59302f","2","1768025138679","1.59","8.059051","8.24505","-1.5998125","-0.0022","0.187","0.9459967613220215","2.0416932106018066","1.609012069702148","15.3277637","74.1245285","0.0860289","2.7662864781320926","0.0"
"28eafa9b-90ad-4662-9f6c-564b7d59302f","2","1768025138690","1.8769501","8.404051","9.241051","-1.3325125","-0.0760375","0.113299996","0.9461560249328613","2.2923591136932373","2.575391235351562","15.3277637","74.1245285","0.0860289","3.5752988049636976","0.0"
"28eafa9b-90ad-4662-9f6c-564b7d59302f","2","1768025138700","1.8769501","8.404051","9.241051","-1.3325125","-0.0760375","0.113299996","0.9461560249328613","2.2923591136932373","2.575391235351562","15.3277637","74.1245285","0.0860289","3.5752988049636976","0.0"
"28eafa9b-90ad-4662-9f6c-564b7d59302f","2","1768025138711","0.91995007","8.67195","12.24705","-1.07085","-0.2256375","0.1513875","2.799642562866211","1.7983863353729248","4.851756515502929","15.3277637","74.1245285","0.0860289","5.88317373335118","0.0"
"28eafa9b-90ad-4662-9f6c-564b7d59302f","2","1768025138721","0.91995007","8.67195","12.24705","-1.07085","-0.2256375","0.1513875","2.799642562866211","1.7983863353729248","4.851756515502929","15.3277637","74.1245285","0.0860289","5.88317373335118","0.0"
"28eafa9b-90ad-4662-9f6c-564b7d59302f","2","1768025138732","0.59400004","7.8870006","11.979001","-1.0311126","-0.29067498","0.147125","2.885171890258789","1.381136178970337","4.183653297424316","15.3277637","74.1245285","0.0860289","5.26637530890551","0.0"
"28eafa9b-90ad-4662-9f6c-564b7d59302f","2","1768025138743","0.59400004","7.8870006","11.979001","-1.0311126","-0.29067498","0.147125","2.885171890258789","1.381136178970337","4.183653297424316","15.3277637","74.1245285","0.0860289","5.26637530890551","0.0"
"28eafa9b-90ad-4662-9f6c-564b7d59302f","2","1768025138753","0.17295001","7.3890004","10.753051","-1.0440375","-0.2706","0.0523875","2.197512149810791","0.6381598711013794","3.035972061157226","15.3277637","74.1245285","0.0860289","3.80176722403903","0.0"
"28eafa9b-90ad-4662-9f6c-564b7d59302f","2","1768025138764","0.17295001","7.3890004","10.753051","-1.0440375","-0.2706","0.0523875","2.197512149810791","0.6381598711013794","3.035972061157226","15.3277637","74.1245285","0.0860289","3.80176722403903","0.0"
"28eafa9b-90ad-4662-9f6c-564b7d59302f","2","1768025138774","0.17295001","7.3890004","10.753051","-1.0440375","-0.2706","0.0523875","2.197512149810791","0.6381598711013794","3.035972061157226","15.3277637","74.1245285","0.0860289","3.80176722403903","0.0"
"28eafa9b-90ad-4662-9f6c-564b7d59302f","2","1768025138785","-0.05595","6.9100504","9.64305","-1.0198375","-0.257675","0.0028875","1.560441017150879","0.16015255451202393","1.9492391967773433","15.3277637","74.1245285","0.0860289","2.5020308661119226","0.0"
"28eafa9b-90ad-4662-9f6c-564b7d59302f","2","1768025138795","-0.05595","6.9100504","9.64305","-1.0198375","-0.257675","0.0028875","1.560441017150879","0.16015255451202393","1.9492391967773433","15.3277637","74.1245285","0.0860289","2.5020308661119226","0.0"
"28eafa9b-90ad-4662-9f6c-564b7d59302f","2","1768025138805","-0.05595","6.9100504","9.64305","-1.0198375","-0.257675","0.0028875","1.560441017150879","0.16015255451202393","1.9492391967773433","15.3277637","74.1245285","0.0860289","2.5020308661119226","0.0"
"28eafa9b-90ad-4662-9f6c-564b7d59302f","2","1768025138816","-0.05595","6.22095","8.628","-0.9455875","-0.2404875","-0.04455","1.1067934036254883","0.003733396530151367","0.7692598724365229","15.3277637","74.1245285","0.0860289","1.3478747448852952","0.0"
"28eafa9b-90ad-4662-9f6c-564b7d59302f","2","1768025138826","0.11595","5.55105","8.092051","-0.7293","-0.253825","-0.104225","0.925199031829834","0.12410485744476318","-0.040789184570313","15.3277637","74.1245285","0.0860289","0.9343762741626942","0.0"
"28eafa9b-90ad-4662-9f6c-564b7d59302f","2","1768025138837","0.11595","5.55105","8.092051","-0.7293","-0.253825","-0.104225","0.925199031829834","0.12410485744476318","-0.040789184570313","15.3277637","74.1245285","0.0860289","0.9343762741626942","0.0"
"28eafa9b-90ad-4662-9f6c-564b7d59302f","2","1768025138847","0.11595","5.55105","8.092051","-0.7293","-0.253825","-0.104225","0.925199031829834","0.12410485744476318","-0.040789184570313","15.3277637","74.1245285","0.0860289","0.9343762741626942","0.0"
"28eafa9b-90ad-4662-9f6c-564b7d59302f","2","1768025138859","0.17295001","4.9960504","7.24905","-0.55233747","-0.279675","-0.1384625","0.6362648010253906","0.10062646865844727","-1.0279613113403325","15.3277637","74.1245285","0.0860289","1.2131211979151488","0.0"
"28eafa9b-90ad-4662-9f6c-564b7d59302f","2","1768025138869","0.17295001","4.9960504","7.24905","-0.55233747","-0.279675","-0.1384625","0.6362648010253906","0.10062646865844727","-1.0279613113403325","15.3277637","74.1245285","0.0860289","1.2131211979151488","0.0"
"28eafa9b-90ad-4662-9f6c-564b7d59302f","3","1768025138880","0.28800002","4.5739503","6.387","-0.18645","-0.3403125","-0.1959375","0.3027968406677246","0.1290597915649414","-1.9557405090332036","15.3277604","74.1245292","0.09535697","1.9832456467091","0.0"
"28eafa9b-90ad-4662-9f6c-564b7d59302f","3","1768025138891","0.28800002","4.5739503","6.387","-0.18645","-0.3403125","-0.1959375","0.3027968406677246","0.1290597915649414","-1.9557405090332036","15.3277604","74.1245292","0.09535697","1.9832456467091","0.0"
"28eafa9b-90ad-4662-9f6c-564b7d59302f","3","1768025138902","0.17295001","4.40205","5.8890004","-0.075075","-0.33825","-0.231","0.13753104209899902","-0.04368269443511963","-2.4569421386718755","15.3277604","74.1245292","0.09535697","2.4611760680852313","0.0"
"28eafa9b-90ad-4662-9f6c-564b7d59302f","3","1768025138912","0.17295001","4.40205","5.8890004","-0.075075","-0.33825","-0.231","0.13753104209899902","-0.04368269443511963","-2.4569421386718755","15.3277604","74.1245292","0.09535697","2.4611760680852313","0.0"
"28eafa9b-90ad-4662-9f6c-564b7d59302f","3","1768025138922","0.135","4.5739503","5.6599503","-0.12595","-0.2611125","-0.2706","-0.12944602966308594","-0.16626060009002686","-2.534706649780274","15.3277604","74.1245292","0.09535697","2.54344975617333","0.0"
"28eafa9b-90ad-4662-9f6c-564b7d59302f","3","1768025138933","0.135","4.5739503","5.6599503","-0.12595","-0.2611125","-0.2706","-0.12944602966308594","-0.16626060009002686","-2.534706649780274","15.3277604","74.1245292","0.09535697","2.54344975617333","0.0"
"28eafa9b-90ad-4662-9f6c-564b7d59302f","3","1768025138943","0.135","4.5739503","5.6599503","-0.12595","-0.2611125","-0.2706","-0.12944602966308594","-0.16626060009002686","-2.534706649780274","15.3277604","74.1245292","0.09535697","2.54344975617333","0.0"
"28eafa9b-90ad-4662-9f6c-564b7d59302f","3","1768025138954","0.36495003","4.8229504","5.2770004","-0.230175","-0.1291125","-0.3267","-0.618659496307373","-0.03949999809265137","-2.678627548217774","15.3277604","74.1245292","0.09535697","2.749426370043718","0.0"
"28eafa9b-90ad-4662-9f6c-564b7d59302f","3","1768025138964","0.36495003","4.8229504","5.2770004","-0.230175","-0.1291125","-0.3267","-0.618659496307373","-0.03949999809265137","-2.678627548217774","15.3277604","74.1245292","0.09535697","2.749426370043718","0.0"
"28eafa9b-90ad-4662-9f6c-564b7d59302f","3","1768025138975","0.40305","5.1870003","5.2579503","-0.1755875","-0.0556875","-0.365475","-0.956998348236084","-0.058460891246795654","-2.475547370910645","15.3277604","74.1245292","0.09535697","2.6547313046624077","0.0"
"28eafa9b-90ad-4662-9f6c-564b7d59302f","3","1768025138985","0.40305","5.1870003","5.2579503","-0.1755875","-0.0556875","-0.365475","-0.956998348236084","-0.058460891246795654","-2.475547370910645","15.3277604","74.1245292","0.09535697","2.6547313046624077","0.0"
"28eafa9b-90ad-4662-9f6c-564b7d59302f","3","1768025138996","0.384","5.742","5.35305","0.0451","-0.0903375","-0.34375","-1.3568570613861084","-0.13463270664215088","-2.0695872879028325","15.3277604","74.1245292","0.09535697","2.478382253200692","0.0"
"28eafa9b-90ad-4662-9f6c-564b7d59302f","3","1768025139006","0.384","5.742","5.35305","0.0451","-0.0903375","-0.34375","-1.3568570613861084","-0.13463270664215088","-2.0695872879028325","15.3277604","74.1245292","0.09535697","2.478382253200692","0.0"
"28eafa9b-90ad-4662-9f6c-564b7d59302f","3","1768025139017","0.384","5.742","5.35305","0.0451","-0.0903375","-0.34375","-1.3568570613861084","-0.13463270664215088","-2.0695872879028325","15.3277604","74.1245292","0.09535697","2.478382253200692","0.0"
"28eafa9b-90ad-4662-9f6c-564b7d59302f","3","1768025139027","0.231","6.1450505","5.583","0.2355375","-0.1343375","-0.3254625","-1.487743854522705","-0.29434776306152344","-1.6439185714721685","15.3277604","74.1245292","0.09535697","2.236624834861782","0.0"
"28eafa9b-90ad-4662-9f6c-564b7d59302f","3","1768025139037","0.231","6.1450505","5.583","0.2355375","-0.1343375","-0.3254625","-1.487743854522705","-0.29434776306152344","-1.6439185714721685","15.3277604","74.1245292","0.09535697","2.236624834861782","0.0"
"28eafa9b-90ad-4662-9f6c-564b7d59302f","3","1768025139048","0.28800002","6.2400002","6.02295","0.458425","-0.18755","-0.3169375","-1.2471377849578857","-0.17273366451263428","-1.2244716262817388","15.3277604","74.1245292","0.09535697","1.7562802558517452","0.0"
"28eafa9b-90ad-4662-9f6c-564b7d59302f","3","1768025139058","0.28800002","6.2400002","6.02295","0.458425","-0.18755","-0.3169375","-1.2471377849578857","-0.17273366451263428","-1.2244716262817388","15.3277604","74.1245292","0.09535697","1.7562802558517452","0.0"
"28eafa9b-90ad-4662-9f6c-564b7d59302f","3","1768025139069","0.384","6.2790003","7.4599504","0.5212625","-0.21367499","-0.3059375","-0.2955446243286133","0.08070653676986694","-0.056523857116699716","15.3277604","74.1245292","0.09535697","0.3115367016424808","0.0"
"28eafa9b-90ad-4662-9f6c-564b7d59302f","3","1768025139079","0.384","6.2790003","7.4599504","0.5212625","-0.21367499","-0.3059375","-0.2955446243286133","0.08070653676986694","-0.056523857116699716","15.3277604","74.1245292","0.09535697","0.3115367016424808","0.0"
"28eafa9b-90ad-4662-9f6c-564b7d59302f","3","1768025139090","0.231","6.3169503","9.241051","0.48345","-0.2382875","-0.2726625","0.9225273132324219","0.10503333806991577","1.3476051712036128","15.3277604","74.1245292","0.09535697","1.6364988063609027","0.0"
"28eafa9b-90ad-4662-9f6c-564b7d59302f","3","1768025139100","0.231","6.3169503","9.241051","0.48345","-0.2382875","-0.2726625","0.9225273132324219","0.10503333806991577","1.3476051712036128","15.3277604","74.1245292","0.09535697","1.6364988063609027","0.0"
"28eafa9b-90ad-4662-9f6c-564b7d59302f","3","1768025139110","0.231","6.3169503","9.241051","0.48345","-0.2382875","-0.2726625","0.9225273132324219","0.10503333806991577","1.3476051712036128","15.3277604","74.1245292","0.09535697","1.6364988063609027","0.0"
"28eafa9b-90ad-4662-9f6c-564b7d59302f","3","1768025139121","0.058050003","6.7189503","9.394051","0.3097875","-0.231825","-0.2146375","0.8590226173400879","-0.09811538457870483","1.7073053741455073","15.3277604","74.1245292","0.09535697","1.9137497554223157","0.0"
"28eafa9b-90ad-4662-9f6c-564b7d59302f","3","1768025139131","0.058050003","6.7189503","9.394051","0.3097875","-0.231825","-0.2146375","0.8590226173400879","-0.09811538457870483","1.7073053741455073","15.3277604","74.1245292","0.09535697","1.9137497554223157","0.0"
"28eafa9b-90ad-4662-9f6c-564b7d59302f","3","1768025139142","-0.01695","6.9870005","8.05305","0.2992","-0.21615","-0.2134","-0.10852527618408203","-0.31230688095092773","0.8464893722534175","15.3277604","74.1245292","0.09535697","0.9087670663036337","0.0"
"28eafa9b-90ad-4662-9f6c-564b7d59302f","3","1768025139152","-0.01695","6.9870005","8.05305","0.2992","-0.21615","-0.2134","-0.10852527618408203","-0.31230688095092773","0.8464893722534175","15.3277604","74.1245292","0.09535697","0.9087670663036337","0.0"
"28eafa9b-90ad-4662-9f6c-564b7d59302f","3","1768025139163","-0.20895001","6.5659504","8.014951","0.232925","-0.180675","-0.2250875","0.2850332260131836","-0.4379526972770691","0.5399641418457026","15.3277604","74.1245292","0.09535697","0.7514038724034557","0.0"
"28eafa9b-90ad-4662-9f6c-564b7d59302f","3","1768025139173","-0.20895001","6.5659504","8.014951","0.232925","-0.180675","-0.2250875","0.2850332260131836","-0.4379526972770691","0.5399641418457026","15.3277604","74.1245292","0.09535697","0.7514038724034557","0.0"
"28eafa9b-90ad-4662-9f6c-564b7d59302f","3","1768025139184","-0.20895001","6.5659504","8.014951","0.232925","-0.180675","-0.2250875","0.2850332260131836","-0.4379526972770691","0.5399641418457026","15.3277604","74.1245292","0.09535697","0.7514038724034557","0.0"
"28eafa9b-90ad-4662-9f6c-564b7d59302f","3","1768025139194","-0.45795003","5.97195","9.604051","0.17379999","-0.166925","-0.224675","1.8255805969238281","-0.48935437202453613","1.3497261428833003","15.3277604","74.1245292","0.09535697","2.322492815503833","0.0"
"28eafa9b-90ad-4662-9f6c-564b7d59302f","3","1768025139205","-0.45795003","5.97195","9.604051","0.17379999","-0.166925","-0.224675","1.8255805969238281","-0.48935437202453613","1.3497261428833003","15.3277604","74.1245292","0.09535697","2.322492815503833","0.0"
"28eafa9b-90ad-4662-9f6c-564b7d59302f","3","1768025139215","-0.80205005","5.379","11.232","0.00605","-0.1255375","-0.2072125","3.3864920139312744","-0.6519805788993835","2.183388175964355","15.3277604","74.1245292","0.09535697","4.081738693574495","0.0"
"28eafa9b-90ad-4662-9f6c-564b7d59302f","3","1768025139226","-0.80205005","5.379","11.232","0.00605","-0.1255375","-0.2072125","3.3864920139312744","-0.6519805788993835","2.183388175964355","15.3277604","74.1245292","0.09535697","4.081738693574495","0.0"
"28eafa9b-90ad-4662-9f6c-564b7d59302f","3","1768025139236","-1.0129501","5.4360003","10.8490505","-0.3700125","0.0485375","-0.2355375","3.0882017612457275","-0.8930917382240295","1.934933128356933","15.3277604","74.1245292","0.09535697","3.7521419459101466","0.0"
"28eafa9b-90ad-4662-9f6c-564b7d59302f","3","1768025139247","-1.0129501","5.4360003","10.8490505","-0.3700125","0.0485375","-0.2355375","3.0882017612457275","-0.8930917382240295","1.934933128356933","15.3277604","74.1245292","0.09535697","3.7521419459101466","0.0"
"28eafa9b-90ad-4662-9f6c-564b7d59302f","3","1768025139257","-0.64905006","5.3590503","9.22095","-0.567325","0.12773749","-0.2385625","1.9048376083374023","-0.592512845993042","0.6870054626464839","15.3277604","74.1245292","0.09535697","2.109846983197938","0.0"
"28eafa9b-90ad-4662-9f6c-564b7d59302f","3","1768025139268","-0.64905006","5.3590503","9.22095","-0.567325","0.12773749","-0.2385625","1.9048376083374023","-0.592512845993042","0.6870054626464839","15.3277604","74.1245292","0.09535697","2.109846983197938","0.0"
"28eafa9b-90ad-4662-9f6c-564b7d59302f","3","1768025139278","-0.64905006","5.3590503","9.22095","-0.567325","0.12773749","-0.2385625","1.9048376083374023","-0.592512845993042","0.6870054626464839","15.3277604","74.1245292","0.09535697","2.109846983197938","0.0"
"28eafa9b-90ad-4662-9f6c-564b7d59302f","3","1768025139289","-0.36195","5.32095","8.781","-0.6650875","0.1672","-0.23815","1.411294937133789","-0.2831290364265442","0.3623918914794917","15.3277604","74.1245292","0.09535697","1.4843326223786137","0.0"
"28eafa9b-90ad-4662-9f6c-564b7d59302f","3","1768025139299","-0.36195","5.32095","8.781","-0.6650875","0.1672","-0.23815","1.411294937133789","-0.2831290364265442","0.3623918914794917","15.3277604","74.1245292","0.09535697","1.4843326223786137","0.0"
"28eafa9b-90ad-4662-9f6c-564b7d59302f","3","1768025139310","-0.05595","5.0719504","9.279","-0.6842","0.17655","-0.2365","1.6533985137939453","0.12444841861724854","0.6340631866455073","15.3277604","74.1245292","0.09535697","1.7751760980171563","0.0"
"28eafa9b-90ad-4662-9f6c-564b7d59302f","3","1768025139320","-0.05595","5.0719504","9.279","-0.6842","0.17655","-0.2365","1.6533985137939453","0.12444841861724854","0.6340631866455073","15.3277604","74.1245292","0.09535697","1.7751760980171563","0.0"
"28eafa9b-90ad-4662-9f6c-564b7d59302f","3","1768025139330","0.09705","4.8040504","9.814951","-0.70454997","0.1769625","-0.218625","1.9454357624053955","0.38372814655303955","0.9366096878051753","15.3277604","74.1245292","0.09535697","2.1929900372307674","0.0"
"28eafa9b-90ad-4662-9f6c-564b7d59302f","3","1768025139341","0.09705","4.8040504","9.814951","-0.70454997","0.1769625","-0.218625","1.9454357624053955","0.38372814655303955","0.9366096878051753","15.3277604","74.1245292","0.09535697","2.1929900372307674","0.0"
"28eafa9b-90ad-4662-9f6c-564b7d59302f","3","1768025139351","0.09705","4.8040504","9.814951","-0.70454997","0.1769625","-0.218625","1.9454357624053955","0.38372814655303955","0.9366096878051753","15.3277604","74.1245292","0.09535697","2.1929900372307674","0.0"
"28eafa9b-90ad-4662-9f6c-564b7d59302f","3","1768025139362","0.135","4.90005","9.56595","-0.7228375","0.1560625","-0.1793","1.49379563331604","0.4365083575248718","0.8255142593383784","15.3277604","74.1245292","0.09535697","1.761657949964783","0.0"
"28eafa9b-90ad-4662-9f6c-564b7d59302f","3","1768025139372","0.135","4.90005","9.56595","-0.7228375","0.1560625","-0.1793","1.49379563331604","0.4365083575248718","0.8255142593383784","15.3277604","74.1245292","0.09535697","1.761657949964783","0.0"
"28eafa9b-90ad-4662-9f6c-564b7d59302f","3","1768025139383","0.26895002","4.9960504","8.7619505","-0.7247625","0.1342","-0.1508375","0.728602409362793","0.5241074562072754","0.23983043670654247","15.3277604","74.1245292","0.09535697","0.9290149271955639","0.0"
"28eafa9b-90ad-4662-9f6c-564b7d59302f","3","1768025139393","0.26895002","4.9960504","8.7619505","-0.7247625","0.1342","-0.1508375","0.728602409362793","0.5241074562072754","0.23983043670654247","15.3277604","74.1245292","0.09535697","0.9290149271955639","0.0"
"28eafa9b-90ad-4662-9f6c-564b7d59302f","3","1768025139403","0.30705002","4.8229504","8.7619505","-0.7381","0.102437496","-0.10285","0.6478486061096191","0.5838667154312134","0.15826457977294872","15.3277604","74.1245292","0.09535697","0.8863722891862752","0.0"
"28eafa9b-90ad-4662-9f6c-564b7d59302f","3","1768025139414","0.30705002","4.8229504","8.7619505","-0.7381","0.102437496","-0.10285","0.6478486061096191","0.5838667154312134","0.15826457977294872","15.3277604","74.1245292","0.09535697","0.8863722891862752","0.0"
"28eafa9b-90ad-4662-9f6c-564b7d59302f","3","1768025139424","0.30705002","4.8229504","8.7619505","-0.7381","0.102437496","-0.10285","0.6478486061096191","0.5838667154312134","0.15826457977294872","15.3277604","74.1245292","0.09535697","0.8863722891862752","0.0"
"28eafa9b-90ad-4662-9f6c-564b7d59302f","3","1768025139435","0.28800002","4.9960504","8.72295","-0.7332875","0.0807125","-0.082225","0.2846837043762207","0.5451005697250366","0.22768634796142528","15.3277604","74.1245292","0.09535697","0.6557594953181678","0.0"
"28eafa9b-90ad-4662-9f6c-564b7d59302f","3","1768025139445","0.28800002","4.9960504","8.72295","-0.7332875","0.0807125","-0.082225","0.2846837043762207","0.5451005697250366","0.22768634796142528","15.3277604","74.1245292","0.09535697","0.6557594953181678","0.0"
"28eafa9b-90ad-4662-9f6c-564b7d59302f","3","1768025139456","0.30705002","4.9759502","8.092051","-0.6584875","0.0257125","-0.0680625","-0.1920456886291504","0.5070661902427673","-0.3209720230102544","15.3277604","74.1245292","0.09535697","0.6300957922123066","0.0"
"28eafa9b-90ad-4662-9f6c-564b7d59302f","3","1768025139466","0.30705002","4.9759502","8.092051","-0.6584875","0.0257125","-0.0680625","-0.1920456886291504","0.5070661902427673","-0.3209720230102544","15.3277604","74.1245292","0.09535697","0.6300957922123066","0.0"
"28eafa9b-90ad-4662-9f6c-564b7d59302f","3","1768025139476","0.441","4.9570503","7.6510506","-0.47795","-0.1137125","-0.050325","-0.545907735824585","0.5969814658164978","-0.7187409973144536","15.3277604","74.1245292","0.09535697","1.0821232590523664","0.0"
"28eafa9b-90ad-4662-9f6c-564b7d59302f","3","1768025139487","0.441","4.9570503","7.6510506","-0.47795","-0.1137125","-0.050325","-0.545907735824585","0.5969814658164978","-0.7187409973144536","15.3277604","74.1245292","0.09535697","1.0821232590523664","0.0"
"28eafa9b-90ad-4662-9f6c-564b7d59302f","3","1768025139497","0.48000002","5.13","7.689","-0.2732125","-0.2118875","-0.0462","-0.7640328407287598","0.5899215936660767","-0.6047692871093755","15.3277604","74.1245292","0.09535697","1.1390783814191034","0.0"
"28eafa9b-90ad-4662-9f6c-564b7d59302f","3","1768025139508","0.48000002","5.13","7.689","-0.2732125","-0.2118875","-0.0462","-0.7640328407287598","0.5899215936660767","-0.6047692871093755","15.3277604","74.1245292","0.09535697","1.1390783814191034","0.0"
"28eafa9b-90ad-4662-9f6c-564b7d59302f","3","1768025139518","0.48000002","5.13","7.689","-0.2732125","-0.2118875","-0.0462","-0.7640328407287598","0.5899215936660767","-0.6047692871093755","15.3277604","74.1245292","0.09535697","1.1390783814191034","0.0"
"28eafa9b-90ad-4662-9f6c-564b7d59302f","3","1768025139529","0.441","5.1870003","7.7850003","-0.0430375","-0.30415","-0.0312125","-0.7960152626037598","0.5031865835189819","-0.49233585357666065","15.3277604","74.1245292","0.09535697","1.0626531084265913","0.0"
"28eafa9b-90ad-4662-9f6c-564b7d59302f","3","1768025139539","0.441","5.1870003","7.7850003","-0.0430375","-0.30415","-0.0312125","-0.7960152626037598","0.5031865835189819","-0.49233585357666065","15.3277604","74.1245292","0.09535697","1.0626531084265913","0.0"
"28eafa9b-90ad-4662-9f6c-564b7d59302f","3","1768025139549","0.32595003","5.2830005","8.034","0.0020625","-0.3276625","-0.002475","-0.7175896167755127","0.33132898807525635","-0.22163253784179737","15.3277604","74.1245292","0.09535697","0.8208743742334732","0.0"
"28eafa9b-90ad-4662-9f6c-564b7d59302f","3","1768025139560","0.32595003","5.2830005","8.034","0.0020625","-0.3276625","-0.002475","-0.7175896167755127","0.33132898807525635","-0.22163253784179737","15.3277604","74.1245292","0.09535697","0.8208743742334732","0.0"
"28eafa9b-90ad-4662-9f6c-564b7d59302f","3","1768025139570","0.17295001","5.379","8.24505","0.040975","-0.3254625","0.012375","-0.6229772567749023","0.11003276705741882","0.015691223144530753","15.3277604","74.1245292","0.09535697","0.632814417320644","0.0"
"28eafa9b-90ad-4662-9f6c-564b7d59302f","3","1768025139581","0.17295001","5.379","8.24505","0.040975","-0.3254625","0.012375","-0.6229772567749023","0.11003276705741882","0.015691223144530753","15.3277604","74.1245292","0.09535697","0.632814417320644","0.0"
"28eafa9b-90ad-4662-9f6c-564b7d59302f","3","1768025139591","0.17295001","5.379","8.24505","0.040975","-0.3254625","0.012375","-0.6229772567749023","0.11003276705741882","0.015691223144530753","15.3277604","74.1245292","0.09535697","0.632814417320644","0.0"
"28eafa9b-90ad-4662-9f6c-564b7d59302f","3","1768025139602","0.076950006","5.41695","8.26395","0.1232","-0.2836625","-0.0055","-0.5795669555664062","-0.05280312895774841","0.054252090454101065","15.3277604","74.1245292","0.09535697","0.5844906464015325","0.0"
"28eafa9b-90ad-4662-9f6c-564b7d59302f","3","1768025139612","0.076950006","5.41695","8.26395","0.1232","-0.2836625","-0.0055","-0.5795669555664062","-0.05280312895774841","0.054252090454101065","15.3277604","74.1245292","0.09535697","0.5844906464015325","0.0"
"28eafa9b-90ad-4662-9f6c-564b7d59302f","3","1768025139623","0.11595","5.41695","8.034","0.1711875","-0.24887499","-0.0243375","-0.6219844818115234","-0.07212179899215698","-0.13994842529296925","15.3277604","74.1245292","0.09535697","0.6416009750976039","0.0"
"28eafa9b-90ad-4662-9f6c-564b7d59302f","3","1768025139633","0.11595","5.41695","8.034","0.1711875","-0.24887499","-0.0243375","-0.6219844818115234","-0.07212179899215698","-0.13994842529296925","15.3277604","74.1245292","0.09535697","0.6416009750976039","0.0"
"28eafa9b-90ad-4662-9f6c-564b7d59302f","3","1768025139644","0.135","5.4550505","7.728","0.2497","-0.2013","-0.0504625","-0.7415335178375244","-0.10575497150421143","-0.37937217712402393","15.3277604","74.1245292","0.09535697","0.8396304668425107","0.0"
"28eafa9b-90ad-4662-9f6c-564b7d59302f","3","1768025139654","0.135","5.4550505","7.728","0.2497","-0.2013","-0.0504625","-0.7415335178375244","-0.10575497150421143","-0.37937217712402393","15.3277604","74.1245292","0.09535697","0.8396304668425107","0.0"
"28eafa9b-90ad-4662-9f6c-564b7d59302f","3","1768025139665","0.135","5.4550505","7.728","0.2497","-0.2013","-0.0504625","-0.7415335178375244","-0.10575497150421143","-0.37937217712402393","15.3277604","74.1245292","0.09535697","0.8396304668425107","0.0"
"28eafa9b-90ad-4662-9f6c-564b7d59302f","3","1768025139675","0.135","5.56995","7.5550504","0.2982375","-0.175175","-0.0616","-0.8471698760986328","-0.14425672590732574","-0.46212059020996143","15.3277604","74.1245292","0.09535697","0.9757367687211942","0.0"
"28eafa9b-90ad-4662-9f6c-564b7d59302f","3","1768025139685","0.135","5.56995","7.5550504","0.2982375","-0.175175","-0.0616","-0.8471698760986328","-0.14425672590732574","-0.46212059020996143","15.3277604","74.1245292","0.09535697","0.9757367687211942","0.0"
"28eafa9b-90ad-4662-9f6c-564b7d59302f","3","1768025139696","0.21195","5.70405","7.3830004","0.3322","-0.1456125","-0.070675","-0.9646921157836914","-0.09961692988872528","-0.528338012695313","15.3277604","74.1245292","0.09535697","1.1043982373376475","0.0"
"28eafa9b-90ad-4662-9f6c-564b7d59302f","3","1768025139706","0.21195","5.70405","7.3830004","0.3322","-0.1456125","-0.070675","-0.9646921157836914","-0.09961692988872528","-0.528338012695313","15.3277604","74.1245292","0.09535697","1.1043982373376475","0.0"
"28eafa9b-90ad-4662-9f6c-564b7d59302f","3","1768025139717","0.30705002","5.781","7.2109504","0.3612125","-0.1056","-0.0847","-1.0312259197235107","-0.025331631302833557","-0.6204419708251958","15.3277604","74.1245292","0.09535697","1.2037511487909436","0.0"
"28eafa9b-90ad-4662-9f6c-564b7d59302f","3","1768025139727","0.30705002","5.781","7.2109504","0.3612125","-0.1056","-0.0847","-1.0312259197235107","-0.025331631302833557","-0.6204419708251958","15.3277604","74.1245292","0.09535697","1.2037511487909436","0.0"
"28eafa9b-90ad-4662-9f6c-564b7d59302f","3","1768025139738","0.28800002","5.8570504","7.0960503","0.3707","-0.0878625","-0.097625","-1.055450439453125","-0.05267590284347534","-0.6653209304809575","15.3277604","74.1245292","0.09535697","1.2487603138385752","0.0"
"28eafa9b-90ad-4662-9f6c-564b7d59302f","3","1768025139749","0.28800002","5.8570504","7.0960503","0.3707","-0.0878625","-0.097625","-1.055450439453125","-0.05267590284347534","-0.6653209304809575","15.3277604","74.1245292","0.09535697","1.2487603138385752","0.0"
"28eafa9b-90ad-4662-9f6c-564b7d59302f","3","1768025139759","0.28800002","5.8570504","7.0960503","0.3707","-0.0878625","-0.097625","-1.055450439453125","-0.05267590284347534","-0.6653209304809575","15.3277604","74.1245292","0.09535697","1.2487603138385752","0.0"
"28eafa9b-90ad-4662-9f6c-564b7d59302f","3","1768025139770","0.26895002","5.9340005","6.9619503","0.3845875","-0.080025","-0.1324125","-1.0878112316131592","-0.07424770295619965","-0.7234922027587896","15.3277604","74.1245292","0.09535697","1.308543833606951","0.0"
"28eafa9b-90ad-4662-9f6c-564b7d59302f","3","1768025139780","0.26895002","5.9340005","6.9619503","0.3845875","-0.080025","-0.1324125","-1.0878112316131592","-0.07424770295619965","-0.7234922027587896","15.3277604","74.1245292","0.09535697","1.308543833606951","0.0"
"28eafa9b-90ad-4662-9f6c-564b7d59302f","3","1768025139791","0.21195","6.0100503","6.9619503","0.3971","-0.0944625","-0.174625","-1.0428006649017334","-0.12317872792482376","-0.670427856445313","15.3277604","74.1245292","0.09535697","1.245824922061897","0.0"
"28eafa9b-90ad-4662-9f6c-564b7d59302f","3","1768025139801","0.21195","6.0100503","6.9619503","0.3971","-0.0944625","-0.174625","-1.0428006649017334","-0.12317872792482376","-0.670427856445313","15.3277604","74.1245292","0.09535697","1.245824922061897","0.0"
"28eafa9b-90ad-4662-9f6c-564b7d59302f","3","1768025139812","0.21195","6.0100503","6.9619503","0.3971","-0.0944625","-0.174625","-1.0428006649017334","-0.12317872792482376","-0.670427856445313","15.3277604","74.1245292","0.09535697","1.245824922061897","0.0"
"28eafa9b-90ad-4662-9f6c-564b7d59302f","3","1768025139822","0.21195","6.0100503","6.9619503","0.3971","-0.0944625","-0.174625","-1.0428006649017334","-0.12317872792482376","-0.670427856445313","15.3277604","74.1245292","0.09535697","1.245824922061897","0.0"
"28eafa9b-90ad-4662-9f6c-564b7d59302f","3","1768025139833","-0.01695","6.35505","6.675","0.4587","-0.15455","-0.2633125","-1.2293670177459717","-0.3299127519130707","-0.6818900680541997","15.3277604","74.1245292","0.09535697","1.444008224736771","0.0"
"28eafa9b-90ad-4662-9f6c-564b7d59302f","3","1768025139843","-0.01695","6.35505","6.675","0.4587","-0.15455","-0.2633125","-1.2293670177459717","-0.3299127519130707","-0.6818900680541997","15.3277604","74.1245292","0.09535697","1.444008224736771","0.0"
"28eafa9b-90ad-4662-9f6c-564b7d59302f","3","1768025139854","-0.01695","6.35505","6.675","0.4587","-0.15455","-0.2633125","-1.2293670177459717","-0.3299127519130707","-0.6818900680541997","15.3277604","74.1245292","0.09535697","1.444008224736771","0.0"
"28eafa9b-90ad-4662-9f6c-564b7d59302f","3","1768025139864","-0.01695","6.5470505","6.675","0.50325","-0.1728375","-0.28187498","-1.2576038837432861","-0.31546658277511597","-0.5504813766479497","15.3277604","74.1245292","0.09535697","1.4085866814968213","0.0"
"28eafa9b-90ad-4662-9f6c-564b7d59302f","3","1768025139875","-0.01695","6.5470505","6.675","0.50325","-0.1728375","-0.28187498","-1.2576038837432861","-0.31546658277511597","-0.5504813766479497","15.3277604","74.1245292","0.09535697","1.4085866814968213","0.0"
"28eafa9b-90ad-4662-9f6c-564b7d59302f","3","1768025139885","0.01995","6.4890003","7.11495","0.5718625","-0.1984125","-0.30745","-0.7996068000793457","-0.24425137042999268","-0.21671920776367237","15.3277604","74.1245292","0.09535697","0.8637111679860195","0.0"
