"session_id","window_id","timestamp","accel_x","accel_y","accel_z","gyro_x","gyro_y","gyro_z","linear_accel_x","linear_accel_y","linear_accel_z","latitude","longitude","speed","vibration_intensity","anomaly_score"
"30a6e302-8ea2-4f91-bdad-e5987a5161ae","1","1768025149075","0.32595003","6.7380004","7.3639503","0.0303875","-0.9125875","-1.145375","-0.5417881011962891","0.09941020607948303","0.16152137756347607","15.3277557","74.1245327","0.0956895","0.574026036936173","0.0"
"30a6e302-8ea2-4f91-bdad-e5987a5161ae","1","1768025149086","0.32595003","6.7380004","7.3639503","0.0303875","-0.9125875","-1.145375","-0.5417881011962891","0.09941020607948303","0.16152137756347607","15.3277557","74.1245327","0.0956895","0.574026036936173","0.0"
"30a6e302-8ea2-4f91-bdad-e5987a5161ae","1","1768025149096","0.30705002","6.7960505","7.51695","0.073975","-0.92675","-1.155","-0.008708000183105469","-0.056294918060302734","0.3281397247314448","15.3277557","74.1245327","0.0956895","0.3330474831213014","0.0"
"30a6e302-8ea2-4f91-bdad-e5987a5161ae","1","1768025149107","0.30705002","6.7960505","7.51695","0.073975","-0.92675","-1.155","-0.008708000183105469","-0.056294918060302734","0.3281397247314448","15.3277557","74.1245327","0.0956895","0.3330474831213014","0.0"
"30a6e302-8ea2-4f91-bdad-e5987a5161ae","1","1768025149118","0.25005","6.87195","7.5360003","0.11","-0.9321125","-1.1562375","-0.0029282569885253906","-0.017066121101379395","0.3918241882324214","15.3277557","74.1245327","0.0956895","0.3922066058373237","0.0"
"30a6e302-8ea2-4f91-bdad-e5987a5161ae","1","1768025149129","0.25005","6.87195","7.5360003","0.11","-0.9321125","-1.1562375","-0.0029282569885253906","-0.017066121101379395","0.3918241882324214","15.3277557","74.1245327","0.0956895","0.3922066058373237","0.0"
"30a6e302-8ea2-4f91-bdad-e5987a5161ae","1","1768025149139","0.09705","7.0249505","7.7470503","0.139975","-0.93541247","-1.1620125","-0.09402704238891602","0.10268270969390869","0.6473783874511714","15.3277557","74.1245327","0.0956895","0.6621809421218414","0.0"
"30a6e302-8ea2-4f91-bdad-e5987a5161ae","1","1768025149150","0.09705","7.0249505","7.7470503","0.139975","-0.93541247","-1.1620125","-0.09402704238891602","0.10268270969390869","0.6473783874511714","15.3277557","74.1245327","0.0956895","0.6621809421218414","0.0"
"30a6e302-8ea2-4f91-bdad-e5987a5161ae","1","1768025149161","-0.01695","7.1400003","7.6699505","0.141625","-0.9417375","-1.1754875","-0.010994434356689453","0.20946747064590454","0.6668333435058589","15.3277557","74.1245327","0.0956895","0.6990452108818279","0.0"
"30a6e302-8ea2-4f91-bdad-e5987a5161ae","1","1768025149172","-0.01695","7.1400003","7.6699505","0.141625","-0.9417375","-1.1754875","-0.010994434356689453","0.20946747064590454","0.6668333435058589","15.3277557","74.1245327","0.0956895","0.6990452108818279","0.0"
"30a6e302-8ea2-4f91-bdad-e5987a5161ae","1","1768025149183","-0.01695","7.1400003","7.6699505","0.141625","-0.9417375","-1.1754875","-0.010994434356689453","0.20946747064590454","0.6668333435058589","15.3277557","74.1245327","0.0956895","0.6990452108818279","0.0"
"30a6e302-8ea2-4f91-bdad-e5987a5161ae","1","1768025149194","-0.112950005","7.25505","7.4599504","0.1428625","-0.948475","-1.1782374","0.17097187042236328","0.29820895195007324","0.5910200500488276","15.3277557","74.1245327","0.0956895","0.6837138722145406","0.0"
"30a6e302-8ea2-4f91-bdad-e5987a5161ae","1","1768025149204","-0.112950005","7.25505","7.4599504","0.1428625","-0.948475","-1.1782374","0.17097187042236328","0.29820895195007324","0.5910200500488276","15.3277557","74.1245327","0.0956895","0.6837138722145406","0.0"
"30a6e302-8ea2-4f91-bdad-e5987a5161ae","1","1768025149215","0.01995","7.3890004","7.0579505","0.157575","-0.95205","-1.1737","0.5254573822021484","0.15811654925346375","0.3934931182861323","15.3277557","74.1245327","0.0956895","0.6752356165051587","0.0"
"30a6e302-8ea2-4f91-bdad-e5987a5161ae","1","1768025149226","0.01995","7.3890004","7.0579505","0.157575","-0.95205","-1.1737","0.5254573822021484","0.15811654925346375","0.3934931182861323","15.3277557","74.1245327","0.0956895","0.6752356165051587","0.0"
"30a6e302-8ea2-4f91-bdad-e5987a5161ae","1","1768025149237","0.039","7.4080505","7.0960503","0.18535","-0.951775","-1.158025","0.47528934478759766","0.0887046754360199","0.4369949722290034","15.3277557","74.1245327","0.0956895","0.6517154950331172","0.0"
"30a6e302-8ea2-4f91-bdad-e5987a5161ae","1","1768025149247","0.039","7.4080505","7.0960503","0.18535","-0.951775","-1.158025","0.47528934478759766","0.0887046754360199","0.4369949722290034","15.3277557","74.1245327","0.0956895","0.6517154950331172","0.0"
"30a6e302-8ea2-4f91-bdad-e5987a5161ae","1","1768025149258","-0.112950005","7.3890004","7.1340003","0.22715","-0.950675","-1.1347874","0.38449668884277344","0.1935538649559021","0.45249217987060497","15.3277557","74.1245327","0.0956895","0.6245398107522658","0.0"
"30a6e302-8ea2-4f91-bdad-e5987a5161ae","1","1768025149269","-0.112950005","7.3890004","7.1340003","0.22715","-0.950675","-1.1347874","0.38449668884277344","0.1935538649559021","0.45249217987060497","15.3277557","74.1245327","0.0956895","0.6245398107522658","0.0"
"30a6e302-8ea2-4f91-bdad-e5987a5161ae","1","1768025149280","-0.112950005","7.3890004","7.1340003","0.22715","-0.950675","-1.1347874","0.38449668884277344","0.1935538649559021","0.45249217987060497","15.3277557","74.1245327","0.0956895","0.6245398107522658","0.0"
"30a6e302-8ea2-4f91-bdad-e5987a5161ae","1","1768025149290","-0.20895001","7.4280005","7.038","0.2935625","-0.942425","-1.116775","0.426755428314209","0.2485208511352539","0.41293663024902294","15.3277557","74.1245327","0.0956895","0.6437386656447267","0.0"
"30a6e302-8ea2-4f91-bdad-e5987a5161ae","1","1768025149301","-0.20895001","7.4280005","7.038","0.2935625","-0.942425","-1.116775","0.426755428314209","0.2485208511352539","0.41293663024902294","15.3277557","74.1245327","0.0956895","0.6437386656447267","0.0"
"30a6e302-8ea2-4f91-bdad-e5987a5161ae","1","1768025149312","-0.22800002","7.7149506","7.24905","0.334125","-0.8985625","-1.0844625","0.41408824920654297","0.2251586765050888","0.7682327651977534","15.3277557","74.1245327","0.0956895","0.9013029952573384","0.0"
"30a6e302-8ea2-4f91-bdad-e5987a5161ae","1","1768025149323","-0.22800002","7.7149506","7.24905","0.334125","-0.8985625","-1.0844625","0.41408824920654297","0.2251586765050888","0.7682327651977534","15.3277557","74.1245327","0.0956895","0.9013029952573384","0.0"
"30a6e302-8ea2-4f91-bdad-e5987a5161ae","1","1768025149334","-0.112950005","7.734","7.2109504","0.329725","-0.8481","-1.0659","0.36262941360473633","0.06736874580383301","0.7583155059814448","15.3277557","74.1245327","0.0956895","0.8432562161848504","0.0"
"30a6e302-8ea2-4f91-bdad-e5987a5161ae","1","1768025149345","-0.112950005","7.734","7.2109504","0.329725","-0.8481","-1.0659","0.36262941360473633","0.06736874580383301","0.7583155059814448","15.3277557","74.1245327","0.0956895","0.8432562161848504","0.0"
"30a6e302-8ea2-4f91-bdad-e5987a5161ae","1","1768025149355","-0.112950005","7.7530503","6.6940503","0.3356375","-0.7997","-1.0383999","0.6535844802856445","-0.017304658889770508","0.41278785705566357","15.3277557","74.1245327","0.0956895","0.7732179117313271","0.0"
"30a6e302-8ea2-4f91-bdad-e5987a5161ae","1","1768025149366","-0.112950005","7.7530503","6.6940503","0.3356375","-0.7997","-1.0383999","0.6535844802856445","-0.017304658889770508","0.41278785705566357","15.3277557","74.1245327","0.0956895","0.7732179117313271","0.0"
"30a6e302-8ea2-4f91-bdad-e5987a5161ae","1","1768025149377","-0.15105","7.8109503","6.1000504","0.362175","-0.7502","-0.9835375","1.0200519561767578","-0.09550797939300537","0.04873985290527294","15.3277557","74.1245327","0.0956895","1.025672140934418","0.0"
"30a6e302-8ea2-4f91-bdad-e5987a5161ae","1","1768025149388","-0.15105","7.8109503","6.1000504","0.362175","-0.7502","-0.9835375","1.0200519561767578","-0.09550797939300537","0.04873985290527294","15.3277557","74.1245327","0.0956895","1.025672140934418","0.0"
"30a6e302-8ea2-4f91-bdad-e5987a5161ae","1","1768025149399","-0.15105","7.8109503","6.1000504","0.362175","-0.7502","-0.9835375","1.0200519561767578","-0.09550797939300537","0.04873985290527294","15.3277557","74.1245327","0.0956895","1.025672140934418","0.0"
"30a6e302-8ea2-4f91-bdad-e5987a5161ae","1","1768025149410","0.058050003","8.04","6.19605","0.4092","-0.72655","-0.93665","0.9634971618652344","-0.37418562173843384","0.2879042053222651","15.3277557","74.1245327","0.0956895","1.072954095886858","0.0"
"30a6e302-8ea2-4f91-bdad-e5987a5161ae","1","1768025149420","0.058050003","8.04","6.19605","0.4092","-0.72655","-0.93665","0.9634971618652344","-0.37418562173843384","0.2879042053222651","15.3277557","74.1245327","0.0956895","1.072954095886858","0.0"
"30a6e302-8ea2-4f91-bdad-e5987a5161ae","1","1768025149431","0.28800002","8.232","6.19605","0.5055875","-0.7051","-0.8504375","0.9195966720581055","-0.6744280457496643","0.4339880371093745","15.3277557","74.1245327","0.0956895","1.2201872169909427","0.0"
"30a6e302-8ea2-4f91-bdad-e5987a5161ae","1","1768025149442","0.28800002","8.232","6.19605","0.5055875","-0.7051","-0.8504375","0.9195966720581055","-0.6744280457496643","0.4339880371093745","15.3277557","74.1245327","0.0956895","1.2201872169909427","0.0"
"30a6e302-8ea2-4f91-bdad-e5987a5161ae","1","1768025149453","0.30705002","8.347051","5.2770004","0.5355625","-0.6884625","-0.7866375","1.4935929775238037","-0.8709474802017212","-0.08246665954589893","15.3277557","74.1245327","0.0956895","1.73094489967613","0.0"
"30a6e302-8ea2-4f91-bdad-e5987a5161ae","1","1768025149464","0.30705002","8.347051","5.2770004","0.5355625","-0.6884625","-0.7866375","1.4935929775238037","-0.8709474802017212","-0.08246665954589893","15.3277557","74.1245327","0.0956895","1.73094489967613","0.0"
"30a6e302-8ea2-4f91-bdad-e5987a5161ae","1","1768025149474","0.039","8.30805","4.45305","0.577775","-0.671275","-0.7293","1.968052625656128","-0.7685703039169312","-0.6235452270507817","15.3277557","74.1245327","0.0956895","2.2028935742774216","0.0"
"30a6e302-8ea2-4f91-bdad-e5987a5161ae","1","1768025149485","0.039","8.30805","4.45305","0.577775","-0.671275","-0.7293","1.968052625656128","-0.7685703039169312","-0.6235452270507817","15.3277557","74.1245327","0.0956895","2.2028935742774216","0.0"
"30a6e302-8ea2-4f91-bdad-e5987a5161ae","1","1768025149496","-0.20895001","8.46195","4.24305","0.7000125","-0.651475","-0.6422625","2.116640090942383","-0.6266328692436218","-0.6024528121948247","15.3277557","74.1245327","0.0956895","2.288183431965743","0.0"
"30a6e302-8ea2-4f91-bdad-e5987a5161ae","1","1768025149507","-0.20895001","8.46195","4.24305","0.7000125","-0.651475","-0.6422625","2.116640090942383","-0.6266328692436218","-0.6024528121948247","15.3277557","74.1245327","0.0956895","2.288183431965743","0.0"
"30a6e302-8ea2-4f91-bdad-e5987a5161ae","1","1768025149518","-0.20895001","8.46195","4.24305","0.7000125","-0.651475","-0.6422625","2.116640090942383","-0.6266328692436218","-0.6024528121948247","15.3277557","74.1245327","0.0956895","2.288183431965743","0.0"
"30a6e302-8ea2-4f91-bdad-e5987a5161ae","1","1768025149529","-0.16995001","8.65305","4.3000503","0.7921375","-0.634975","-0.590425","1.9792211055755615","-0.6971944570541382","-0.3764844512939458","15.3277557","74.1245327","0.0956895","2.131932653197297","0.0"
"30a6e302-8ea2-4f91-bdad-e5987a5161ae","1","1768025149540","-0.16995001","8.65305","4.3000503","0.7921375","-0.634975","-0.590425","1.9792211055755615","-0.6971944570541382","-0.3764844512939458","15.3277557","74.1245327","0.0956895","2.131932653197297","0.0"
"30a6e302-8ea2-4f91-bdad-e5987a5161ae","1","1768025149550","-0.16995001","8.82495","3.7060502","0.9125875","-0.627825","-0.5399625","2.294752597808838","-0.8524452447891235","-0.555223999023438","15.3277557","74.1245327","0.0956895","2.5101446312126274","0.0"
"30a6e302-8ea2-4f91-bdad-e5987a5161ae","1","1768025149561","-0.16995001","8.82495","3.7060502","0.9125875","-0.627825","-0.5399625","2.294752597808838","-0.8524452447891235","-0.555223999023438","15.3277557","74.1245327","0.0956895","2.5101446312126274","0.0"
"30a6e302-8ea2-4f91-bdad-e5987a5161ae","1","1768025149572","-0.05595","8.940001","3.381","1.0165375","-0.63525","-0.5176875","2.3230650424957275","-1.0386219024658203","-0.5968280410766607","15.3277557","74.1245327","0.0956895","2.6137272923093566","0.0"
"30a6e302-8ea2-4f91-bdad-e5987a5161ae","1","1768025149583","-0.05595","8.940001","3.381","1.0165375","-0.63525","-0.5176875","2.3230650424957275","-1.0386219024658203","-0.5968280410766607","15.3277557","74.1245327","0.0956895","2.6137272923093566","0.0"
"30a6e302-8ea2-4f91-bdad-e5987a5161ae","1","1768025149594","-0.01695","8.979","3.24705","1.12695","-0.6364875","-0.4907375","2.163839817047119","-1.0823917388916016","-0.5735335922241216","15.3277557","74.1245327","0.0956895","2.4865066683338695","0.0"
"30a6e302-8ea2-4f91-bdad-e5987a5161ae","1","1768025149605","-0.01695","8.979","3.24705","1.12695","-0.6364875","-0.4907375","2.163839817047119","-1.0823917388916016","-0.5735335922241216","15.3277557","74.1245327","0.0956895","2.4865066683338695","0.0"
"30a6e302-8ea2-4f91-bdad-e5987a5161ae","1","1768025149616","-0.01695","8.979","3.24705","1.12695","-0.6364875","-0.4907375","2.163839817047119","-1.0823917388916016","-0.5735335922241216","15.3277557","74.1245327","0.0956895","2.4865066683338695","0.0"
"30a6e302-8ea2-4f91-bdad-e5987a5161ae","1","1768025149626","0.11595","8.82495","3.6109502","1.2461625","-0.645975","-0.4565","1.4660935401916504","-1.013777732849121","-0.4422364807128911","15.3277557","74.1245327","0.0956895","1.8365044691167276","0.0"
"30a6e302-8ea2-4f91-bdad-e5987a5161ae","1","1768025149637","0.11595","8.82495","3.6109502","1.2461625","-0.645975","-0.4565","1.4660935401916504","-1.013777732849121","-0.4422364807128911","15.3277557","74.1245327","0.0956895","1.8365044691167276","0.0"
"30a6e302-8ea2-4f91-bdad-e5987a5161ae","1","1768025149648","0.17295001","8.691","3.85995","1.241625","-0.6560125","-0.434775","0.8925111293792725","-0.8815590143203735","-0.38190895080566456","15.3277557","74.1245327","0.0956895","1.311326373753253","0.0"
"30a6e302-8ea2-4f91-bdad-e5987a5161ae","1","1768025149659","0.17295001","8.691","3.85995","1.241625","-0.6560125","-0.434775","0.8925111293792725","-0.8815590143203735","-0.38190895080566456","15.3277557","74.1245327","0.0956895","1.311326373753253","0.0"
"30a6e302-8ea2-4f91-bdad-e5987a5161ae","1","1768025149670","0.135","8.538","3.7060502","1.1994125","-0.6661875","-0.39655","0.6751382350921631","-0.7687188386917114","-0.5577703094482427","15.3277557","74.1245327","0.0956895","1.1652673545349508","0.0"
"30a6e302-8ea2-4f91-bdad-e5987a5161ae","1","1768025149681","0.135","8.538","3.7060502","1.1994125","-0.6661875","-0.39655","0.6751382350921631","-0.7687188386917114","-0.5577703094482427","15.3277557","74.1245327","0.0956895","1.1652673545349508","0.0"
"30a6e302-8ea2-4f91-bdad-e5987a5161ae","1","1768025149691","-0.05595","8.404051","3.89805","1.1779625","-0.6590375","-0.3700125","0.2811391353607178","-0.4052398204803467","-0.5589051818847661","15.3277557","74.1245327","0.0956895","0.7454082960847425","0.0"
"30a6e302-8ea2-4f91-bdad-e5987a5161ae","1","1768025149702","-0.05595","8.404051","3.89805","1.1779625","-0.6590375","-0.3700125","0.2811391353607178","-0.4052398204803467","-0.5589051818847661","15.3277557","74.1245327","0.0956895","0.7454082960847425","0.0"
"30a6e302-8ea2-4f91-bdad-e5987a5161ae","1","1768025149713","-0.24705002","8.328","4.683","1.0797875","-0.64762497","-0.3557125","-0.5488190650939941","0.1637115478515625","-0.2696061706542974","15.3277557","74.1245327","0.0956895","0.6330018359890233","0.0"
"30a6e302-8ea2-4f91-bdad-e5987a5161ae","1","1768025149724","-0.24705002","8.328","4.683","1.0797875","-0.64762497","-0.3557125","-0.5488190650939941","0.1637115478515625","-0.2696061706542974","15.3277557","74.1245327","0.0956895","0.6330018359890233","0.0"
"30a6e302-8ea2-4f91-bdad-e5987a5161ae","1","1768025149735","-0.24705002","8.328","4.683","1.0797875","-0.64762497","-0.3557125","-0.5488190650939941","0.1637115478515625","-0.2696061706542974","15.3277557","74.1245327","0.0956895","0.6330018359890233","0.0"
"30a6e302-8ea2-4f91-bdad-e5987a5161ae","1","1768025149746","-0.132","8.136001","5.0280004","0.7932375","-0.66522497","-0.3708375","-1.147634744644165","0.32690250873565674","-0.31954151153564503","15.3277557","74.1245327","0.0956895","1.2353289177084088","0.0"
"30a6e302-8ea2-4f91-bdad-e5987a5161ae","1","1768025149757","-0.132","8.136001","5.0280004","0.7932375","-0.66522497","-0.3708375","-1.147634744644165","0.32690250873565674","-0.31954151153564503","15.3277557","74.1245327","0.0956895","1.2353289177084088","0.0"
"30a6e302-8ea2-4f91-bdad-e5987a5161ae","1","1768025149768","0.09705","8.136001","4.9890003","0.624525","-0.6694875","-0.381975","-1.3379111289978027","0.18167567253112793","-0.3616643524169927","15.3277557","74.1245327","0.0956895","1.397788733283759","0.0"
"30a6e302-8ea2-4f91-bdad-e5987a5161ae","1","1768025149778","0.09705","8.136001","4.9890003","0.624525","-0.6694875","-0.381975","-1.3379111289978027","0.18167567253112793","-0.3616643524169927","15.3277557","74.1245327","0.0956895","1.397788733283759","0.0"
"30a6e302-8ea2-4f91-bdad-e5987a5161ae","1","1768025149789","0.26895002","8.02095","4.45305","0.383075","-0.65999997","-0.3542","-1.1218221187591553","-0.09902215003967285","-0.7012496566772466","15.3277557","74.1245327","0.0956895","1.3266654941339644","0.0"
"30a6e302-8ea2-4f91-bdad-e5987a5161ae","1","1768025149800","0.26895002","8.02095","4.45305","0.383075","-0.65999997","-0.3542","-1.1218221187591553","-0.09902215003967285","-0.7012496566772466","15.3277557","74.1245327","0.0956895","1.3266654941339644","0.0"
"30a6e302-8ea2-4f91-bdad-e5987a5161ae","1","1768025149811","0.26895002","8.02095","4.45305","0.383075","-0.65999997","-0.3542","-1.1218221187591553","-0.09902215003967285","-0.7012496566772466","15.3277557","74.1245327","0.0956895","1.3266654941339644","0.0"
"30a6e302-8ea2-4f91-bdad-e5987a5161ae","1","1768025149822","0.48000002","7.96395","4.1850004","0.20185","-0.6342875","-0.3268375","-1.0850212574005127","-0.345792293548584","-0.8728700256347661","15.3277557","74.1245327","0.0956895","1.4348329243992894","0.0"
"30a6e302-8ea2-4f91-bdad-e5987a5161ae","1","1768025149833","0.57495004","8.04","3.9940503","0.0517","-0.5916625","-0.29315","-0.9839248657226562","-0.5025776624679565","-0.8822961425781255","15.3277557","74.1245327","0.0956895","1.4139090958782825","0.0"
"30a6e302-8ea2-4f91-bdad-e5987a5161ae","1","1768025149844","0.57495004","8.04","3.9940503","0.0517","-0.5916625","-0.29315","-0.9839248657226562","-0.5025776624679565","-0.8822961425781255","15.3277557","74.1245327","0.0956895","1.4139090958782825","0.0"
"30a6e302-8ea2-4f91-bdad-e5987a5161ae","1","1768025149855","0.57495004","8.04","3.9940503","0.0517","-0.5916625","-0.29315","-0.9839248657226562","-0.5025776624679565","-0.8822961425781255","15.3277557","74.1245327","0.0956895","1.4139090958782825","0.0"
"30a6e302-8ea2-4f91-bdad-e5987a5161ae","1","1768025149866","0.91995007","7.9830003","3.6679502","-0.09515","-0.550825","-0.188375","-0.912327766418457","-0.923454761505127","-1.0725312805175786","15.3277557","74.1245327","0.0956895","1.6838746977175167","0.0"
"30a6e302-8ea2-4f91-bdad-e5987a5161ae","1","1768025149876","0.91995007","7.9830003","3.6679502","-0.09515","-0.550825","-0.188375","-0.912327766418457","-0.923454761505127","-1.0725312805175786","15.3277557","74.1245327","0.0956895","1.6838746977175167","0.0"
"30a6e302-8ea2-4f91-bdad-e5987a5161ae","1","1768025149887","1.07295","8.00205","3.7450502","-0.1351625","-0.5445","-0.1106875","-1.0206859111785889","-1.0140115022659302","-1.0270944213867192","15.3277557","74.1245327","0.0956895","1.7677505498372201","0.0"
"30a6e302-8ea2-4f91-bdad-e5987a5161ae","1","1768025149898","1.07295","8.00205","3.7450502","-0.1351625","-0.5445","-0.1106875","-1.0206859111785889","-1.0140115022659302","-1.0270944213867192","15.3277557","74.1245327","0.0956895","1.7677505498372201","0.0"
"30a6e302-8ea2-4f91-bdad-e5987a5161ae","1","1768025149909","0.99705005","8.136001","4.39605","-0.1461625","-0.5405125","-0.0103124995","-1.4100162982940674","-0.6581449508666992","-0.6397996520996099","15.3277557","74.1245327","0.0956895","1.682451881223655","0.0"
"30a6e302-8ea2-4f91-bdad-e5987a5161ae","2","1768025149920","0.99705005","8.136001","4.39605","-0.1461625","-0.5405125","-0.0103124995","-1.4100162982940674","-0.6581449508666992","-0.6397996520996099","15.327754","74.1245333","0.11357021","1.682451881223655","0.0"
"30a6e302-8ea2-4f91-bdad-e5987a5161ae","2","1768025149931","0.80505","8.17395","4.932","-0.1557875","-0.52965","0.034375","-1.6347134113311768","-0.2172698974609375","-0.372484741210938","15.327754","74.1245333","0.11357021","1.6906327300640074","0.0"
"30a6e302-8ea2-4f91-bdad-e5987a5161ae","2","1768025149941","0.80505","8.17395","4.932","-0.1557875","-0.52965","0.034375","-1.6347134113311768","-0.2172698974609375","-0.372484741210938","15.327754","74.1245333","0.11357021","1.6906327300640074","0.0"
"30a6e302-8ea2-4f91-bdad-e5987a5161ae","2","1768025149952","0.80505","8.17395","4.932","-0.1557875","-0.52965","0.034375","-1.6347134113311768","-0.2172698974609375","-0.372484741210938","15.327754","74.1245333","0.11357021","1.6906327300640074","0.0"
"30a6e302-8ea2-4f91-bdad-e5987a5161ae","2","1768025149962","0.55605","8.328","5.2189503","-0.187825","-0.5121875","0.0636625","-1.534590721130371","0.1329660415649414","-0.08736854553222706","15.327754","74.1245333","0.11357021","1.5428162276620307","0.0"
"30a6e302-8ea2-4f91-bdad-e5987a5161ae","2","1768025149973","0.55605","8.328","5.2189503","-0.187825","-0.5121875","0.0636625","-1.534590721130371","0.1329660415649414","-0.08736854553222706","15.327754","74.1245333","0.11357021","1.5428162276620307","0.0"
"30a6e302-8ea2-4f91-bdad-e5987a5161ae","2","1768025149984","0.441","8.481","4.85505","-0.238425","-0.480975","0.0889625","-0.9984185695648193","0.05519223213195801","-0.07894378662109425","15.327754","74.1245333","0.11357021","1.0030543075953788","0.0"
"30a6e302-8ea2-4f91-bdad-e5987a5161ae","2","1768025149994","0.441","8.481","4.85505","-0.238425","-0.480975","0.0889625","-0.9984185695648193","0.05519223213195801","-0.07894378662109425","15.327754","74.1245333","0.11357021","1.0030543075953788","0.0"
"30a6e302-8ea2-4f91-bdad-e5987a5161ae","2","1768025150005","0.441","8.67195","4.39605","-0.212025","-0.4481125","0.1038125","-0.4630885124206543","-0.1731431484222412","-0.09001880645752003","15.327754","74.1245333","0.11357021","0.5025265223822293","0.0"
"30a6e302-8ea2-4f91-bdad-e5987a5161ae","2","1768025150016","0.441","8.67195","4.39605","-0.212025","-0.4481125","0.1038125","-0.4630885124206543","-0.1731431484222412","-0.09001880645752003","15.327754","74.1245333","0.11357021","0.5025265223822293","0.0"
"30a6e302-8ea2-4f91-bdad-e5987a5161ae","2","1768025150026","0.55605","8.863951","3.9750001","-0.1188","-0.39627498","0.0941875","-0.04935884475708008","-0.47187602519989014","-0.09123664855957081","15.327754","74.1245333","0.11357021","0.4831432548991898","0.0"
"30a6e302-8ea2-4f91-bdad-e5987a5161ae","2","1768025150037","0.55605","8.863951","3.9750001","-0.1188","-0.39627498","0.0941875","-0.04935884475708008","-0.47187602519989014","-0.09123664855957081","15.327754","74.1245333","0.11357021","0.4831432548991898","0.0"
"30a6e302-8ea2-4f91-bdad-e5987a5161ae","2","1768025150047","0.55605","8.863951","3.9750001","-0.1188","-0.39627498","0.0941875","-0.04935884475708008","-0.47187602519989014","-0.09123664855957081","15.327754","74.1245333","0.11357021","0.4831432548991898","0.0"
"30a6e302-8ea2-4f91-bdad-e5987a5161ae","2","1768025150058","0.61395","9.016951","3.8400002","-0.0528","-0.3680875","0.0735625","0.12839674949645996","-0.55928635597229","-0.00700813293457081","15.327754","74.1245333","0.11357021","0.5738780943591143","0.0"
"30a6e302-8ea2-4f91-bdad-e5987a5161ae","2","1768025150068","0.61395","9.016951","3.8400002","-0.0528","-0.3680875","0.0735625","0.12839674949645996","-0.55928635597229","-0.00700813293457081","15.327754","74.1245333","0.11357021","0.5738780943591143","0.0"
"30a6e302-8ea2-4f91-bdad-e5987a5161ae","2","1768025150079","0.69000006","9.151051","3.9940503","0.050875","-0.331925","0.0523875","0.052663564682006836","-0.5195337533950806","0.18487876892089794","15.327754","74.1245333","0.11357021","0.5539575174681747","0.0"
"30a6e302-8ea2-4f91-bdad-e5987a5161ae","2","1768025150089","0.69000006","9.151051","3.9940503","0.050875","-0.331925","0.0523875","0.052663564682006836","-0.5195337533950806","0.18487876892089794","15.327754","74.1245333","0.11357021","0.5539575174681747","0.0"
"30a6e302-8ea2-4f91-bdad-e5987a5161ae","2","1768025150100","0.67095006","9.41895","4.1659503","0.1309","-0.318725","0.0022","0.045395851135253906","-0.4182720184326172","0.502367439270019","15.327754","74.1245333","0.11357021","0.655274987118161","0.0"
"30a6e302-8ea2-4f91-bdad-e5987a5161ae","2","1768025150111","0.67095006","9.41895","4.1659503","0.1309","-0.318725","0.0022","0.045395851135253906","-0.4182720184326172","0.502367439270019","15.327754","74.1245333","0.11357021","0.655274987118161","0.0"
"30a6e302-8ea2-4f91-bdad-e5987a5161ae","2","1768025150121","0.59400004","9.591001","4.45305","0.14575","-0.3111625","-0.0334125","-0.07479572296142578","-0.1932368278503418","0.7789968872070308","15.327754","74.1245333","0.11357021","0.8060837562494535","0.0"
"30a6e302-8ea2-4f91-bdad-e5987a5161ae","2","1768025150132","0.59400004","9.591001","4.45305","0.14575","-0.3111625","-0.0334125","-0.07479572296142578","-0.1932368278503418","0.7789968872070308","15.327754","74.1245333","0.11357021","0.8060837562494535","0.0"
"30a6e302-8ea2-4f91-bdad-e5987a5161ae","2","1768025150143","0.59400004","9.591001","4.45305","0.14575","-0.3111625","-0.0334125","-0.07479572296142578","-0.1932368278503418","0.7789968872070308","15.327754","74.1245333","0.11357021","0.8060837562494535","0.0"
"30a6e302-8ea2-4f91-bdad-e5987a5161ae","2","1768025150154","0.40305","9.76395","4.6260004","0.1670625","-0.2842125","-0.07095","-0.05488276481628418","0.06441020965576172","1.0015634918212886","15.327754","74.1245333","0.11357021","1.0051319421503981","0.0"
"30a6e302-8ea2-4f91-bdad-e5987a5161ae","2","1768025150164","0.40305","9.76395","4.6260004","0.1670625","-0.2842125","-0.07095","-0.05488276481628418","0.06441020965576172","1.0015634918212886","15.327754","74.1245333","0.11357021","1.0051319421503981","0.0"
"30a6e302-8ea2-4f91-bdad-e5987a5161ae","2","1768025150175","0.34605002","9.97395","4.5490503","0.1452","-0.2585","-0.111237496","0.08066773414611816","0.06717324256896973","1.1573280715942378","15.327754","74.1245333","0.11357021","1.1620790821409426","0.0"
"30a6e302-8ea2-4f91-bdad-e5987a5161ae","2","1768025150186","0.34605002","9.97395","4.5490503","0.1452","-0.2585","-0.111237496","0.08066773414611816","0.06717324256896973","1.1573280715942378","15.327754","74.1245333","0.11357021","1.1620790821409426","0.0"
"30a6e302-8ea2-4f91-bdad-e5987a5161ae","2","1768025150197","0.384","10.222951","4.39605","0.1568875","-0.2118875","-0.1626625","0.23044776916503906","-0.06870269775390625","1.3220991516113276","15.327754","74.1245333","0.11357021","1.343790311649552","0.0"
"30a6e302-8ea2-4f91-bdad-e5987a5161ae","2","1768025150208","0.384","10.222951","4.39605","0.1568875","-0.2118875","-0.1626625","0.23044776916503906","-0.06870269775390625","1.3220991516113276","15.327754","74.1245333","0.11357021","1.343790311649552","0.0"
"30a6e302-8ea2-4f91-bdad-e5987a5161ae","2","1768025150218","0.30705002","10.318951","4.47195","0.2261875","-0.1524875","-0.1843875","0.20186161994934082","0.026811599731445312","1.4386391067504878","15.327754","74.1245333","0.11357021","1.4529795094771891","0.0"
"30a6e302-8ea2-4f91-bdad-e5987a5161ae","2","1768025150229","0.30705002","10.318951","4.47195","0.2261875","-0.1524875","-0.1843875","0.20186161994934082","0.026811599731445312","1.4386391067504878","15.327754","74.1245333","0.11357021","1.4529795094771891","0.0"
"30a6e302-8ea2-4f91-bdad-e5987a5161ae","2","1768025150240","0.039","10.128","5.0280004","0.2564375","-0.12155","-0.1727","-0.20366692543029785","0.5829694271087646","1.4805883789062495","15.327754","74.1245333","0.11357021","1.60420557199194","0.0"
"30a6e302-8ea2-4f91-bdad-e5987a5161ae","2","1768025150251","0.039","10.128","5.0280004","0.2564375","-0.12155","-0.1727","-0.20366692543029785","0.5829694271087646","1.4805883789062495","15.327754","74.1245333","0.11357021","1.60420557199194","0.0"
"30a6e302-8ea2-4f91-bdad-e5987a5161ae","2","1768025150261","0.039","10.128","5.0280004","0.2564375","-0.12155","-0.1727","-0.20366692543029785","0.5829694271087646","1.4805883789062495","15.327754","74.1245333","0.11357021","1.60420557199194","0.0"
"30a6e302-8ea2-4f91-bdad-e5987a5161ae","2","1768025150272","-0.16995001","9.936001","5.8890004","0.2701875","-0.0752125","-0.1573","-0.8769960403442383","1.24753999710083","1.6402325057983393","15.327754","74.1245333","0.11357021","2.239607280802443","0.0"
"30a6e302-8ea2-4f91-bdad-e5987a5161ae","2","1768025150283","-0.16995001","9.936001","5.8890004","0.2701875","-0.0752125","-0.1573","-0.8769960403442383","1.24753999710083","1.6402325057983393","15.327754","74.1245333","0.11357021","2.239607280802443","0.0"
"30a6e302-8ea2-4f91-bdad-e5987a5161ae","2","1768025150294","-0.132","10.491","5.736","0.2311375","-0.0565125","-0.16555","-0.6670894622802734","1.034522294998169","2.0839046859741206","15.327754","74.1245333","0.11357021","2.4203106143134936","0.0"
"30a6e302-8ea2-4f91-bdad-e5987a5161ae","2","1768025150304","-0.132","10.491","5.736","0.2311375","-0.0565125","-0.16555","-0.6670894622802734","1.034522294998169","2.0839046859741206","15.327754","74.1245333","0.11357021","2.4203106143134936","0.0"
"30a6e302-8ea2-4f91-bdad-e5987a5161ae","2","1768025150315","-0.51495004","10.300051","4.6639504","0.1596375","-0.0232375","-0.17765","0.21928620338439941","0.8369770050048828","1.4753908538818354","15.327754","74.1245333","0.11357021","1.7103786474403435","0.0"
"30a6e302-8ea2-4f91-bdad-e5987a5161ae","2","1768025150326","-0.51495004","10.300051","4.6639504","0.1596375","-0.0232375","-0.17765","0.21928620338439941","0.8369770050048828","1.4753908538818354","15.327754","74.1245333","0.11357021","1.7103786474403435","0.0"
"30a6e302-8ea2-4f91-bdad-e5987a5161ae","2","1768025150337","-0.78300005","10.06995","4.5870004","-0.027224999","0.036849998","-0.230175","0.2798957824707031","1.0467816591262817","1.230084838867187","15.327754","74.1245333","0.11357021","1.6392688009411305","0.0"
"30a6e302-8ea2-4f91-bdad-e5987a5161ae","2","1768025150347","-0.78300005","10.06995","4.5870004","-0.027224999","0.036849998","-0.230175","0.2798957824707031","1.0467816591262817","1.230084838867187","15.327754","74.1245333","0.11357021","1.6392688009411305","0.0"
"30a6e302-8ea2-4f91-bdad-e5987a5161ae","2","1768025150358","-0.78300005","10.06995","4.5870004","-0.027224999","0.036849998","-0.230175","0.2798957824707031","1.0467816591262817","1.230084838867187","15.327754","74.1245333","0.11357021","1.6392688009411305","0.0"
"30a6e302-8ea2-4f91-bdad-e5987a5161ae","2","1768025150368","-0.64905006","9.09405","5.81295","-0.0515625","0.100237496","-0.27115","-1.083327054977417","1.679068922996521","0.8164076232910151","15.327754","74.1245333","0.11357021","2.1585623372018756","0.0"
"30a6e302-8ea2-4f91-bdad-e5987a5161ae","2","1768025150379","-0.64905006","9.09405","5.81295","-0.0515625","0.100237496","-0.27115","-1.083327054977417","1.679068922996521","0.8164076232910151","15.327754","74.1245333","0.11357021","2.1585623372018756","0.0"
"30a6e302-8ea2-4f91-bdad-e5987a5161ae","2","1768025150389","-0.47700003","8.269951","6.3679504","-0.1337875","0.1716","-0.3229875","-1.8825528621673584","1.8770102262496948","0.2946142578124995","15.327754","74.1245333","0.11357021","2.674690679164014","0.0"
"30a6e302-8ea2-4f91-bdad-e5987a5161ae","2","1768025150400","-0.47700003","8.269951","6.3679504","-0.1337875","0.1716","-0.3229875","-1.8825528621673584","1.8770102262496948","0.2946142578124995","15.327754","74.1245333","0.11357021","2.674690679164014","0.0"
"30a6e302-8ea2-4f91-bdad-e5987a5161ae","2","1768025150411","-0.36195","7.69605","5.4679503","-0.2102375","0.190025","-0.321475","-1.4041504859924316","1.305983304977417","-0.5589757537841802","15.327754","74.1245333","0.11357021","1.9974195537020036","0.0"
"30a6e302-8ea2-4f91-bdad-e5987a5161ae","2","1768025150421","-0.36195","7.69605","5.4679503","-0.2102375","0.190025","-0.321475","-1.4041504859924316","1.305983304977417","-0.5589757537841802","15.327754","74.1245333","0.11357021","1.9974195537020036","0.0"
"30a6e302-8ea2-4f91-bdad-e5987a5161ae","2","1768025150432","-0.36195","7.6189504","4.45305","-0.27335","0.1978625","-0.2926","-0.6412818431854248","0.7245919704437256","-1.0308881378173833","15.327754","74.1245333","0.11357021","1.4138621851946565","0.0"
"30a6e302-8ea2-4f91-bdad-e5987a5161ae","2","1768025150443","-0.36195","7.6189504","4.45305","-0.27335","0.1978625","-0.2926","-0.6412818431854248","0.7245919704437256","-1.0308881378173833","15.327754","74.1245333","0.11357021","1.4138621851946565","0.0"
"30a6e302-8ea2-4f91-bdad-e5987a5161ae","2","1768025150453","-0.36195","7.6189504","4.45305","-0.27335","0.1978625","-0.2926","-0.6412818431854248","0.7245919704437256","-1.0308881378173833","15.327754","74.1245333","0.11357021","1.4138621851946565","0.0"
"30a6e302-8ea2-4f91-bdad-e5987a5161ae","2","1768025150465","-0.45795003","7.52295","4.06995","-0.403425","0.18975","-0.2574","-0.3180408477783203","0.5477488040924072","-1.267880020141602","15.327754","74.1245333","0.11357021","1.417285602380298","0.0"
"30a6e302-8ea2-4f91-bdad-e5987a5161ae","2","1768025150475","-0.45795003","7.52295","4.06995","-0.403425","0.18975","-0.2574","-0.3180408477783203","0.5477488040924072","-1.267880020141602","15.327754","74.1245333","0.11357021","1.417285602380298","0.0"
"30a6e302-8ea2-4f91-bdad-e5987a5161ae","2","1768025150486","-0.573","7.5810003","4.3770003","-0.4522375","0.1978625","-0.2363625","-0.4412574768066406","0.6702206134796143","-1.0742049789428716","15.327754","74.1245333","0.11357021","1.340828165111551","0.0"
"30a6e302-8ea2-4f91-bdad-e5987a5161ae","2","1768025150496","-0.573","7.5810003","4.3770003","-0.4522375","0.1978625","-0.2363625","-0.4412574768066406","0.6702206134796143","-1.0742049789428716","15.327754","74.1245333","0.11357021","1.340828165111551","0.0"
"30a6e302-8ea2-4f91-bdad-e5987a5161ae","2","1768025150507","-0.61095005","7.5420003","4.53","-0.46695","0.2255","-0.2198625","-0.5061385631561279","0.6662709712982178","-1.0307145690917974","15.327754","74.1245333","0.11357021","1.3275789148847272","0.0"
"30a6e302-8ea2-4f91-bdad-e5987a5161ae","2","1768025150518","-0.61095005","7.5420003","4.53","-0.46695","0.2255","-0.2198625","-0.5061385631561279","0.6662709712982178","-1.0307145690917974","15.327754","74.1245333","0.11357021","1.3275789148847272","0.0"
"30a6e302-8ea2-4f91-bdad-e5987a5161ae","2","1768025150529","-0.55305004","7.3510504","4.5679502","-0.418825","0.2679875","-0.1973125","-0.5820472240447998","0.5696752071380615","-1.1759591674804692","15.327754","74.1245333","0.11357021","1.4304505500811304","0.0"
"30a6e302-8ea2-4f91-bdad-e5987a5161ae","2","1768025150539","-0.55305004","7.3510504","4.5679502","-0.418825","0.2679875","-0.1973125","-0.5820472240447998","0.5696752071380615","-1.1759591674804692","15.327754","74.1245333","0.11357021","1.4304505500811304","0.0"
"30a6e302-8ea2-4f91-bdad-e5987a5161ae","2","1768025150550","-0.55305004","7.3510504","4.5679502","-0.418825","0.2679875","-0.1973125","-0.5820472240447998","0.5696752071380615","-1.1759591674804692","15.327754","74.1245333","0.11357021","1.4304505500811304","0.0"
"30a6e302-8ea2-4f91-bdad-e5987a5161ae","2","1768025150561","-0.20895001","7.1590505","4.6260004","-0.350625","0.30621248","-0.1684375","-0.823981523513794","0.24221515655517578","-1.3271976089477544","15.327754","74.1245333","0.11357021","1.5808438336387935","0.0"
"30a6e302-8ea2-4f91-bdad-e5987a5161ae","2","1768025150572","-0.20895001","7.1590505","4.6260004","-0.350625","0.30621248","-0.1684375","-0.823981523513794","0.24221515655517578","-1.3271976089477544","15.327754","74.1245333","0.11357021","1.5808438336387935","0.0"
"30a6e302-8ea2-4f91-bdad-e5987a5161ae","2","1768025150582","0.01995","7.00605","4.5679502","-0.3790875","0.29645","-0.1104125","-0.9110925197601318","-0.03612041473388672","-1.4961610412597661","15.327754","74.1245333","0.11357021","1.7521107628534567","0.0"
"30a6e302-8ea2-4f91-bdad-e5987a5161ae","2","1768025150593","0.01995","7.00605","4.5679502","-0.3790875","0.29645","-0.1104125","-0.9110925197601318","-0.03612041473388672","-1.4961610412597661","15.327754","74.1245333","0.11357021","1.7521107628534567","0.0"
"30a6e302-8ea2-4f91-bdad-e5987a5161ae","2","1768025150604","0.076950006","7.083","4.1850004","-0.445225","0.2781625","-0.0727375","-0.55967116355896","-0.3404703140258789","-1.608787117004395","15.327754","74.1245333","0.11357021","1.737051477041378","0.0"
"30a6e302-8ea2-4f91-bdad-e5987a5161ae","2","1768025150615","0.076950006","7.083","4.1850004","-0.445225","0.2781625","-0.0727375","-0.55967116355896","-0.3404703140258789","-1.608787117004395","15.327754","74.1245333","0.11357021","1.737051477041378","0.0"
"30a6e302-8ea2-4f91-bdad-e5987a5161ae","2","1768025150625","0.17295001","7.293","3.381","-0.3887125","0.2715625","0.025024999","0.17630600929260254","-0.8673723936080933","-1.8184090232849126","15.327754","74.1245333","0.11357021","2.0223822719926385","0.0"
"30a6e302-8ea2-4f91-bdad-e5987a5161ae","2","1768025150636","0.17295001","7.293","3.381","-0.3887125","0.2715625","0.025024999","0.17630600929260254","-0.8673723936080933","-1.8184090232849126","15.327754","74.1245333","0.11357021","2.0223822719926385","0.0"
"30a6e302-8ea2-4f91-bdad-e5987a5161ae","2","1768025150646","0.17295001","7.293","3.381","-0.3887125","0.2715625","0.025024999","0.17630600929260254","-0.8673723936080933","-1.8184090232849126","15.327754","74.1245333","0.11357021","2.0223822719926385","0.0"
"30a6e302-8ea2-4f91-bdad-e5987a5161ae","2","1768025150657","0.09705","7.6759505","3.285","-0.1995125","0.2704625","0.131175","0.5070326328277588","-0.9845263957977295","-1.5338607406616216","15.327754","74.1245333","0.11357021","1.8918517612428662","0.0"
"30a6e302-8ea2-4f91-bdad-e5987a5161ae","2","1768025150668","0.09705","7.6759505","3.285","-0.1995125","0.2704625","0.131175","0.5070326328277588","-0.9845263957977295","-1.5338607406616216","15.327754","74.1245333","0.11357021","1.8918517612428662","0.0"
"30a6e302-8ea2-4f91-bdad-e5987a5161ae","2","1768025150678","-0.15105","8.00205","3.5340002","0.0565125","0.2842125","0.2204125","0.5910487174987793","-0.7692062854766846","-1.1149573898315435","15.327754","74.1245333","0.11357021","1.477885948648866","0.0"
"30a6e302-8ea2-4f91-bdad-e5987a5161ae","2","1768025150689","-0.15105","8.00205","3.5340002","0.0565125","0.2842125","0.2204125","0.5910487174987793","-0.7692062854766846","-1.1149573898315435","15.327754","74.1245333","0.11357021","1.477885948648866","0.0"
"30a6e302-8ea2-4f91-bdad-e5987a5161ae","2","1768025150699","-0.324","8.079","3.5719502","0.2256375","0.2784375","0.2644125","0.6593701839447021","-0.5897090435028076","-1.0150285339355474","15.327754","74.1245333","0.11357021","1.3464058526936122","0.0"
"30a6e302-8ea2-4f91-bdad-e5987a5161ae","2","1768025150710","-0.324","8.079","3.5719502","0.2256375","0.2784375","0.2644125","0.6593701839447021","-0.5897090435028076","-1.0150285339355474","15.327754","74.1245333","0.11357021","1.3464058526936122","0.0"
"30a6e302-8ea2-4f91-bdad-e5987a5161ae","2","1768025150720","-0.40005","8.25105","3.6490502","0.2399375","0.2552","0.2556125","0.6588051319122314","-0.4856452941894531","-0.8163600540161138","15.327754","74.1245333","0.11357021","1.1559927730723256","0.0"
"30a6e302-8ea2-4f91-bdad-e5987a5161ae","2","1768025150731","-0.40005","8.25105","3.6490502","0.2399375","0.2552","0.2556125","0.6588051319122314","-0.4856452941894531","-0.8163600540161138","15.327754","74.1245333","0.11357021","1.1559927730723256","0.0"
"30a6e302-8ea2-4f91-bdad-e5987a5161ae","2","1768025150742","-0.40005","8.25105","3.6490502","0.2399375","0.2552","0.2556125","0.6588051319122314","-0.4856452941894531","-0.8163600540161138","15.327754","74.1245333","0.11357021","1.1559927730723256","0.0"
"30a6e302-8ea2-4f91-bdad-e5987a5161ae","2","1768025150753","-0.43905002","8.385","3.8790002","0.2981","0.2226125","0.234025","0.4937312602996826","-0.3489995002746582","-0.5805869674682622","15.327754","74.1245333","0.11357021","0.8382436611052105","0.0"
"30a6e302-8ea2-4f91-bdad-e5987a5161ae","2","1768025150763","-0.43905002","8.385","3.8790002","0.2981","0.2226125","0.234025","0.4937312602996826","-0.3489995002746582","-0.5805869674682622","15.327754","74.1245333","0.11357021","0.8382436611052105","0.0"
"30a6e302-8ea2-4f91-bdad-e5987a5161ae","2","1768025150774","-0.40005","8.481","3.9169502","0.33467498","0.194425","0.2135375","0.4228668212890625","-0.3364766836166382","-0.4752336120605474","15.327754","74.1245333","0.11357021","0.7196387240809669","0.0"
"30a6e302-8ea2-4f91-bdad-e5987a5161ae","2","1768025150785","-0.40005","8.481","3.9169502","0.33467498","0.194425","0.2135375","0.4228668212890625","-0.3364766836166382","-0.4752336120605474","15.327754","74.1245333","0.11357021","0.7196387240809669","0.0"
"30a6e302-8ea2-4f91-bdad-e5987a5161ae","2","1768025150795","-0.40005","8.481","3.9169502","0.33467498","0.194425","0.2135375","0.4228668212890625","-0.3364766836166382","-0.4752336120605474","15.327754","74.1245333","0.11357021","0.7196387240809669","0.0"
"30a6e302-8ea2-4f91-bdad-e5987a5161ae","2","1768025150806","-0.16995001","8.557051","3.7830002","0.368225","0.17325","0.19525","0.4028754234313965","-0.5449937582015991","-0.47705989837646534","15.327754","74.1245333","0.11357021","0.8288021174699626","0.0"
"30a6e302-8ea2-4f91-bdad-e5987a5161ae","2","1768025150817","-0.16995001","8.557051","3.7830002","0.368225","0.17325","0.19525","0.4028754234313965","-0.5449937582015991","-0.47705989837646534","15.327754","74.1245333","0.11357021","0.8288021174699626","0.0"
"30a6e302-8ea2-4f91-bdad-e5987a5161ae","2","1768025150828","0.01995","8.404051","3.6109502","0.44233748","0.16115","0.1739375","0.33847761154174805","-0.6763079166412354","-0.6943269348144536","15.327754","74.1245333","0.11357021","1.026669072308818","0.0"
"30a6e302-8ea2-4f91-bdad-e5987a5161ae","2","1768025150838","0.01995","8.404051","3.6109502","0.44233748","0.16115","0.1739375","0.33847761154174805","-0.6763079166412354","-0.6943269348144536","15.327754","74.1245333","0.11357021","1.026669072308818","0.0"
"30a6e302-8ea2-4f91-bdad-e5987a5161ae","2","1768025150849","0.15405001","7.9450502","3.8400002","0.4862","0.1508375","0.1557875","-0.16337227821350098","-0.5710080862045288","-1.0042958831787114","15.327754","74.1245333","0.11357021","1.166769453135167","0.0"
"30a6e302-8ea2-4f91-bdad-e5987a5161ae","2","1768025150860","0.15405001","7.9450502","3.8400002","0.4862","0.1508375","0.1557875","-0.16337227821350098","-0.5710080862045288","-1.0042958831787114","15.327754","74.1245333","0.11357021","1.166769453135167","0.0"
"30a6e302-8ea2-4f91-bdad-e5987a5161ae","2","1768025150870","0.34605002","7.5420003","3.8790002","0.4673625","0.1188","0.1255375","-0.5064384937286377","-0.5995421409606934","-1.3582406616210942","15.327754","74.1245333","0.11357021","1.5686772840832404","0.0"
"30a6e302-8ea2-4f91-bdad-e5987a5161ae","2","1768025150881","0.34605002","7.5420003","3.8790002","0.4673625","0.1188","0.1255375","-0.5064384937286377","-0.5995421409606934","-1.3582406616210942","15.327754","74.1245333","0.11357021","1.5686772840832404","0.0"
"30a6e302-8ea2-4f91-bdad-e5987a5161ae","2","1768025150892","0.42195","6.9300003","3.6679502","0.388025","0.0804375","0.105875","-0.6616561412811279","-0.5733928680419922","-2.006780681610108","15.327754","74.1245333","0.11357021","2.189460420857153","0.0"
"30a6e302-8ea2-4f91-bdad-e5987a5161ae","2","1768025150903","0.42195","6.9300003","3.6679502","0.388025","0.0804375","0.105875","-0.6616561412811279","-0.5733928680419922","-2.006780681610108","15.327754","74.1245333","0.11357021","2.189460420857153","0.0"
"30a6e302-8ea2-4f91-bdad-e5987a5161ae","2","1768025150914","0.28800002","6.3739505","3.76395","0.2941125","0.0383625","0.0963875","-0.961165189743042","-0.28125810623168945","-2.4700699424743657","15.327754","74.1245333","0.11357021","2.6653686733752484","0.0"
"30a6e302-8ea2-4f91-bdad-e5987a5161ae","3","1768025150925","0.28800002","6.3739505","3.76395","0.2941125","0.0383625","0.0963875","-0.961165189743042","-0.28125810623168945","-2.4700699424743657","15.3277537","74.1245331","0.17109725","2.6653686733752484","0.0"
"30a6e302-8ea2-4f91-bdad-e5987a5161ae","3","1768025150936","-0.075","6.1450505","4.05105","0.1683","-0.0099","0.1071125","-1.2041015625","0.21277475357055664","-2.551684436798096","15.3277537","74.1245331","0.17109725","2.8295277227073727","0.0"
"30a6e302-8ea2-4f91-bdad-e5987a5161ae","3","1768025150946","-0.075","6.1450505","4.05105","0.1683","-0.0099","0.1071125","-1.2041015625","0.21277475357055664","-2.551684436798096","15.3277537","74.1245331","0.17109725","2.8295277227073727","0.0"
"30a6e302-8ea2-4f91-bdad-e5987a5161ae","3","1768025150957","-0.075","6.1450505","4.05105","0.1683","-0.0099","0.1071125","-1.2041015625","0.21277475357055664","-2.551684436798096","15.3277537","74.1245331","0.17109725","2.8295277227073727","0.0"
"30a6e302-8ea2-4f91-bdad-e5987a5161ae","3","1768025150968","0.40305","7.293","4.51095","-0.0022","-0.0556875","0.093637496","-1.3605666160583496","-0.2707279920578003","-1.3380151367187505","15.3277537","74.1245331","0.17109725","1.9273608039245307","0.0"
"30a6e302-8ea2-4f91-bdad-e5987a5161ae","3","1768025150979","0.40305","7.293","4.51095","-0.0022","-0.0556875","0.093637496","-1.3605666160583496","-0.2707279920578003","-1.3380151367187505","15.3277537","74.1245331","0.17109725","1.9273608039245307","0.0"
"30a6e302-8ea2-4f91-bdad-e5987a5161ae","3","1768025150990","1.60905","9.936001","4.7790003","-0.1813625","-0.11715","0.100375","-0.9873752593994141","-1.7274903059005737","1.1532520675659175","15.3277537","74.1245331","0.17109725","2.2998093380103453","0.0"
"30a6e302-8ea2-4f91-bdad-e5987a5161ae","3","1768025151000","1.60905","9.936001","4.7790003","-0.1813625","-0.11715","0.100375","-0.9873752593994141","-1.7274903059005737","1.1532520675659175","15.3277537","74.1245331","0.17109725","2.2998093380103453","0.0"
"30a6e302-8ea2-4f91-bdad-e5987a5161ae","3","1768025151011","1.59","11.755051","5.29605","-0.18975","-0.1662375","0.1876875","-0.6762111186981201","-1.8255383968353271","3.033972206115722","15.3277537","74.1245331","0.17109725","3.6048355389467854","0.0"
"30a6e302-8ea2-4f91-bdad-e5987a5161ae","3","1768025151022","1.59","11.755051","5.29605","-0.18975","-0.1662375","0.1876875","-0.6762111186981201","-1.8255383968353271","3.033972206115722","15.3277537","74.1245331","0.17109725","3.6048355389467854","0.0"
"30a6e302-8ea2-4f91-bdad-e5987a5161ae","3","1768025151033","1.11195","10.989","11.02095","-0.2116125","-0.2437875","0.30525","-5.610698699951172","0.5616304874420166","4.7385582351684565","15.3277537","74.1245331","0.17109725","7.365412605831456","0.0"
"30a6e302-8ea2-4f91-bdad-e5987a5161ae","3","1768025151044","1.11195","10.989","11.02095","-0.2116125","-0.2437875","0.30525","-5.610698699951172","0.5616304874420166","4.7385582351684565","15.3277537","74.1245331","0.17109725","7.365412605831456","0.0"
"30a6e302-8ea2-4f91-bdad-e5987a5161ae","3","1768025151054","1.11195","10.989","11.02095","-0.2116125","-0.2437875","0.30525","-5.610698699951172","0.5616304874420166","4.7385582351684565","15.3277537","74.1245331","0.17109725","7.365412605831456","0.0"
"30a6e302-8ea2-4f91-bdad-e5987a5161ae","3","1768025151065","0.28800002","9.438001","18.490051","-0.7275125","-0.4189625","0.330825","-12.168469429016113","3.9985718727111816","6.529540481567382","15.3277537","74.1245331","0.17109725","14.37689549821393","0.0"
"30a6e302-8ea2-4f91-bdad-e5987a5161ae","3","1768025151076","0.28800002","9.438001","18.490051","-0.7275125","-0.4189625","0.330825","-12.168469429016113","3.9985718727111816","6.529540481567382","15.3277537","74.1245331","0.17109725","14.37689549821393","0.0"
"30a6e302-8ea2-4f91-bdad-e5987a5161ae","3","1768025151086","0.57495004","8.422951","18.96795","-1.5543","-0.5014625","0.1431375","-12.73305892944336","4.1612982749938965","6.052300872802734","15.3277537","74.1245331","0.17109725","14.699576146578961","0.0"
"30a6e302-8ea2-4f91-bdad-e5987a5161ae","3","1768025151097","0.57495004","8.422951","18.96795","-1.5543","-0.5014625","0.1431375","-12.73305892944336","4.1612982749938965","6.052300872802734","15.3277537","74.1245331","0.17109725","14.699576146578961","0.0"
"30a6e302-8ea2-4f91-bdad-e5987a5161ae","3","1768025151108","0.57495004","8.269951","14.71695","-2.288","-0.4987125","-0.0308","-8.639327049255371","2.832528591156006","4.425523223876953","15.3277537","74.1245331","0.17109725","10.111698467062098","0.0"
"30a6e302-8ea2-4f91-bdad-e5987a5161ae","3","1768025151119","0.57495004","8.269951","14.71695","-2.288","-0.4987125","-0.0308","-8.639327049255371","2.832528591156006","4.425523223876953","15.3277537","74.1245331","0.17109725","10.111698467062098","0.0"
"30a6e302-8ea2-4f91-bdad-e5987a5161ae","3","1768025151129","-0.19005","8.500051","10.275001","-2.322375","-0.4475625","-0.0897875","-3.9150967597961426","1.9295809268951416","2.79203742980957","15.3277537","74.1245331","0.17109725","5.181383811440859","0.0"
"30a6e302-8ea2-4f91-bdad-e5987a5161ae","3","1768025151140","-0.19005","8.500051","10.275001","-2.322375","-0.4475625","-0.0897875","-3.9150967597961426","1.9295809268951416","2.79203742980957","15.3277537","74.1245331","0.17109725","5.181383811440859","0.0"
"30a6e302-8ea2-4f91-bdad-e5987a5161ae","3","1768025151151","-0.19005","8.500051","10.275001","-2.322375","-0.4475625","-0.0897875","-3.9150967597961426","1.9295809268951416","2.79203742980957","15.3277537","74.1245331","0.17109725","5.181383811440859","0.0"
"30a6e302-8ea2-4f91-bdad-e5987a5161ae","3","1768025151162","-0.726","7.69605","7.51695","-2.0865624","-0.3691875","-0.1288375","-1.3289275169372559","1.5129094123840332","0.7827267074584956","15.3277537","74.1245331","0.17109725","2.160463916366584","0.0"
"30a6e302-8ea2-4f91-bdad-e5987a5161ae","3","1768025151173","-0.726","7.69605","7.51695","-2.0865624","-0.3691875","-0.1288375","-1.3289275169372559","1.5129094123840332","0.7827267074584956","15.3277537","74.1245331","0.17109725","2.160463916366584","0.0"
"30a6e302-8ea2-4f91-bdad-e5987a5161ae","3","1768025151183","-1.1850001","6.7570505","6.4450502","-1.6875374","-0.2209625","-0.1012","-0.3731350898742676","1.5923117399215698","-0.5403752899169927","15.3277537","74.1245331","0.17109725","1.7224087570435795","0.0"
"30a6e302-8ea2-4f91-bdad-e5987a5161ae","3","1768025151194","-1.1850001","6.7570505","6.4450502","-1.6875374","-0.2209625","-0.1012","-0.3731350898742676","1.5923117399215698","-0.5403752899169927","15.3277537","74.1245331","0.17109725","1.7224087570435795","0.0"
"30a6e302-8ea2-4f91-bdad-e5987a5161ae","3","1768025151205","-1.2430501","6.2590504","5.54505","-1.414325","-0.1131625","-0.100925","0.33007168769836426","1.348733901977539","-1.470908699035645","15.3277537","74.1245331","0.17109725","2.0227710839989625","0.0"
"30a6e302-8ea2-4f91-bdad-e5987a5161ae","3","1768025151216","-1.2430501","6.2590504","5.54505","-1.414325","-0.1131625","-0.100925","0.33007168769836426","1.348733901977539","-1.470908699035645","15.3277537","74.1245331","0.17109725","2.0227710839989625","0.0"
"30a6e302-8ea2-4f91-bdad-e5987a5161ae","3","1768025151226","-0.87900007","5.55105","5.00895","-1.0927125","0.073425","-0.157025","0.38040852546691895","0.9141560196876526","-2.3470254516601567","15.3277537","74.1245331","0.17109725","2.547335930991366","0.0"
"30a6e302-8ea2-4f91-bdad-e5987a5161ae","3","1768025151237","-0.87900007","5.55105","5.00895","-1.0927125","0.073425","-0.157025","0.38040852546691895","0.9141560196876526","-2.3470254516601567","15.3277537","74.1245331","0.17109725","2.547335930991366","0.0"
"30a6e302-8ea2-4f91-bdad-e5987a5161ae","3","1768025151248","-0.61095005","5.13","4.64505","-0.9647","0.18975","-0.2055625","0.4236631393432617","0.5694729089736938","-2.8989310836791997","15.3277537","74.1245331","0.17109725","2.984558807866685","0.0"
"30a6e302-8ea2-4f91-bdad-e5987a5161ae","3","1768025151259","-0.61095005","5.13","4.64505","-0.9647","0.18975","-0.2055625","0.4236631393432617","0.5694729089736938","-2.8989310836791997","15.3277537","74.1245331","0.17109725","2.984558807866685","0.0"
"30a6e302-8ea2-4f91-bdad-e5987a5161ae","3","1768025151269","-0.61095005","5.13","4.64505","-0.9647","0.18975","-0.2055625","0.4236631393432617","0.5694729089736938","-2.8989310836791997","15.3277537","74.1245331","0.17109725","2.984558807866685","0.0"
"30a6e302-8ea2-4f91-bdad-e5987a5161ae","3","1768025151280","-0.55305004","5.0149503","4.7980504","-1.216325","0.2905375","-0.2946625","0.35446977615356445","0.4844706654548645","-2.8733926391601567","15.3277537","74.1245331","0.17109725","2.9354294245769914","0.0"
"30a6e302-8ea2-4f91-bdad-e5987a5161ae","3","1768025151291","-0.55305004","5.0149503","4.7980504","-1.216325","0.2905375","-0.2946625","0.35446977615356445","0.4844706654548645","-2.8733926391601567","15.3277537","74.1245331","0.17109725","2.9354294245769914","0.0"
"30a6e302-8ea2-4f91-bdad-e5987a5161ae","3","1768025151301","-0.34305","5.0149503","4.91295","-0.9944","0.3883","-0.2662","0.36135244369506836","0.17982256412506104","-2.792765674591065","15.3277537","74.1245331","0.17109725","2.821781681191335","0.0"
"30a6e302-8ea2-4f91-bdad-e5987a5161ae","3","1768025151312","-0.34305","5.0149503","4.91295","-0.9944","0.3883","-0.2662","0.36135244369506836","0.17982256412506104","-2.792765674591065","15.3277537","74.1245331","0.17109725","2.821781681191335","0.0"
"30a6e302-8ea2-4f91-bdad-e5987a5161ae","3","1768025151323","-0.075","4.90005","5.4300003","-0.4833125","0.4720375","-0.171325","-0.018625974655151367","-0.04388463497161865","-2.4957156753540044","15.3277537","74.1245331","0.17109725","2.4961709717737968","0.0"
"30a6e302-8ea2-4f91-bdad-e5987a5161ae","3","1768025151334","-0.075","4.90005","5.4300003","-0.4833125","0.4720375","-0.171325","-0.018625974655151367","-0.04388463497161865","-2.4957156753540044","15.3277537","74.1245331","0.17109725","2.4961709717737968","0.0"
"30a6e302-8ea2-4f91-bdad-e5987a5161ae","3","1768025151345","-0.19005","4.72695","6.06195","0.341275","0.6378625","-0.025024999","-0.43927001953125","0.14410758018493652","-2.1344748115539556","15.3277537","74.1245331","0.17109725","2.1839660862486023","0.0"
"30a6e302-8ea2-4f91-bdad-e5987a5161ae","3","1768025151356","-0.19005","4.72695","6.06195","0.341275","0.6378625","-0.025024999","-0.43927001953125","0.14410758018493652","-2.1344748115539556","15.3277537","74.1245331","0.17109725","2.1839660862486023","0.0"
"30a6e302-8ea2-4f91-bdad-e5987a5161ae","3","1768025151366","-0.19005","4.72695","6.06195","0.341275","0.6378625","-0.025024999","-0.43927001953125","0.14410758018493652","-2.1344748115539556","15.3277537","74.1245331","0.17109725","2.1839660862486023","0.0"
"30a6e302-8ea2-4f91-bdad-e5987a5161ae","3","1768025151377","-0.324","4.76595","6.6550503","0.53267497","0.70125","0.0253","-0.8317441940307617","0.3106130361557007","-1.6662488555908208","15.3277537","74.1245331","0.17109725","1.8880318088664354","0.0"
"30a6e302-8ea2-4f91-bdad-e5987a5161ae","3","1768025151388","-0.324","4.76595","6.6550503","0.53267497","0.70125","0.0253","-0.8317441940307617","0.3106130361557007","-1.6662488555908208","15.3277537","74.1245331","0.17109725","1.8880318088664354","0.0"
"30a6e302-8ea2-4f91-bdad-e5987a5161ae","3","1768025151398","-0.34305","5.4360003","6.9229503","0.5581125","0.694925","0.1034","-0.6708621978759766","0.12241697311401367","-1.0276322937011724","15.3277537","74.1245331","0.17109725","1.2333167212451617","0.0"
"30a6e302-8ea2-4f91-bdad-e5987a5161ae","3","1768025151409","-0.34305","5.4360003","6.9229503","0.5581125","0.694925","0.1034","-0.6708621978759766","0.12241697311401367","-1.0276322937011724","15.3277537","74.1245331","0.17109725","1.2333167212451617","0.0"
"30a6e302-8ea2-4f91-bdad-e5987a5161ae","3","1768025151420","-0.36195","6.4510503","7.1719503","0.190025","0.6213625","0.1618375","-0.27584409713745117","-0.1496129035949707","-0.16191917419433643","15.3277537","74.1245331","0.17109725","0.35311726921728065","0.0"
"30a6e302-8ea2-4f91-bdad-e5987a5161ae","3","1768025151431","-0.36195","6.4510503","7.1719503","0.190025","0.6213625","0.1618375","-0.27584409713745117","-0.1496129035949707","-0.16191917419433643","15.3277537","74.1245331","0.17109725","0.35311726921728065","0.0"
"30a6e302-8ea2-4f91-bdad-e5987a5161ae","3","1768025151442","0.09705","8.30805","7.2300005","0.0407","0.5556375","0.213125","0.7306432723999023","-1.1152063608169556","1.1229080581665034","15.3277537","74.1245331","0.17109725","1.7431142606854844","0.0"
"30a6e302-8ea2-4f91-bdad-e5987a5161ae","3","1768025151452","0.09705","8.30805","7.2300005","0.0407","0.5556375","0.213125","0.7306432723999023","-1.1152063608169556","1.1229080581665034","15.3277537","74.1245331","0.17109725","1.7431142606854844","0.0"
"30a6e302-8ea2-4f91-bdad-e5987a5161ae","3","1768025151463","0.09705","8.30805","7.2300005","0.0407","0.5556375","0.213125","0.7306432723999023","-1.1152063608169556","1.1229080581665034","15.3277537","74.1245331","0.17109725","1.7431142606854844","0.0"
"30a6e302-8ea2-4f91-bdad-e5987a5161ae","3","1768025151474","-0.45795003","8.710951","7.2300005","0.0944625","0.3953125","0.3922875","1.1189489364624023","-0.7263704538345337","1.440940322875976","15.3277537","74.1245331","0.17109725","1.9636623367330877","0.0"
"30a6e302-8ea2-4f91-bdad-e5987a5161ae","3","1768025151485","-0.45795003","8.710951","7.2300005","0.0944625","0.3953125","0.3922875","1.1189489364624023","-0.7263704538345337","1.440940322875976","15.3277537","74.1245331","0.17109725","1.9636623367330877","0.0"
"30a6e302-8ea2-4f91-bdad-e5987a5161ae","3","1768025151496","-0.132","8.136001","9.681001","0.0647625","0.29865","0.4651625","-1.057699203491211","-0.5329879522323608","2.780906143188476","15.3277537","74.1245331","0.17109725","3.0226218320382374","0.0"
"30a6e302-8ea2-4f91-bdad-e5987a5161ae","3","1768025151506","-0.132","8.136001","9.681001","0.0647625","0.29865","0.4651625","-1.057699203491211","-0.5329879522323608","2.780906143188476","15.3277537","74.1245331","0.17109725","3.0226218320382374","0.0"
"30a6e302-8ea2-4f91-bdad-e5987a5161ae","3","1768025151517","-1.10895","8.193001","13.720951","-0.025575","0.1964875","0.5027","-3.545283794403076","0.939103364944458","5.783863487243652","15.3277537","74.1245331","0.17109725","6.848651630209948","0.0"
"30a6e302-8ea2-4f91-bdad-e5987a5161ae","3","1768025151528","-1.10895","8.193001","13.720951","-0.025575","0.1964875","0.5027","-3.545283794403076","0.939103364944458","5.783863487243652","15.3277537","74.1245331","0.17109725","6.848651630209948","0.0"
"30a6e302-8ea2-4f91-bdad-e5987a5161ae","3","1768025151538","-1.7220001","8.079","13.471951","-0.443025","0.1527625","0.36781248","-3.292849063873291","1.549446702003479","5.568080368041992","15.3277537","74.1245331","0.17109725","6.651853803623116","0.0"
"30a6e302-8ea2-4f91-bdad-e5987a5161ae","3","1768025151549","-1.7220001","8.079","13.471951","-0.443025","0.1527625","0.36781248","-3.292849063873291","1.549446702003479","5.568080368041992","15.3277537","74.1245331","0.17109725","6.651853803623116","0.0"
"30a6e302-8ea2-4f91-bdad-e5987a5161ae","3","1768025151559","-1.7220001","8.079","13.471951","-0.443025","0.1527625","0.267025","-3.292849063873291","1.549446702003479","5.568080368041992","15.3277537","74.1245331","0.17109725","6.651853803623116","0.0"
"30a6e302-8ea2-4f91-bdad-e5987a5161ae","3","1768025151570","-1.5300001","7.9450502","9.93","-0.5908375","0.1887875","0.267025","-0.8695049285888672","0.9589025974273682","2.93339485168457","15.3277537","74.1245331","0.17109725","3.206296674994818","0.0"
"30a6e302-8ea2-4f91-bdad-e5987a5161ae","3","1768025151581","-1.5300001","7.9450502","9.93","-0.5908375","0.1887875","0.267025","-0.8695049285888672","0.9589025974273682","2.93339485168457","15.3277537","74.1245331","0.17109725","3.206296674994818","0.0"
"30a6e302-8ea2-4f91-bdad-e5987a5161ae","3","1768025151592","-1.2430501","7.6189504","7.4790006","-0.572825","0.2176625","0.1956625","0.6394152641296387","0.4447365999221802","0.9101862335205073","15.3277537","74.1245331","0.17109725","1.1979488732840664","0.0"
"30a6e302-8ea2-4f91-bdad-e5987a5161ae","3","1768025151602","-1.2430501","7.6189504","7.4790006","-0.572825","0.2176625","0.1956625","0.6394152641296387","0.4447365999221802","0.9101862335205073","15.3277537","74.1245331","0.17109725","1.1979488732840664","0.0"
"30a6e302-8ea2-4f91-bdad-e5987a5161ae","3","1768025151613","-0.78300005","6.9490504","7.2109504","-0.38995","0.2448875","0.183975","0.34377479553222656","0.06846415996551514","0.22879165649414013","15.3277537","74.1245331","0.17109725","0.4185858016277433","0.0"
"30a6e302-8ea2-4f91-bdad-e5987a5161ae","3","1768025151624","-0.78300005","6.9490504","7.2109504","-0.38995","0.2448875","0.183975","0.34377479553222656","0.06846415996551514","0.22879165649414013","15.3277537","74.1245331","0.17109725","0.4185858016277433","0.0"
"30a6e302-8ea2-4f91-bdad-e5987a5161ae","3","1768025151635","-0.36195","6.4890003","7.326","-0.1920875","0.279675","0.1661","-0.06942510604858398","-0.26351630687713623","-0.020508346557617685","15.3277537","74.1245331","0.17109725","0.27327876174073523","0.0"
"30a6e302-8ea2-4f91-bdad-e5987a5161ae","3","1768025151646","-0.36195","6.4890003","7.326","-0.1920875","0.279675","0.1661","-0.06942510604858398","-0.26351630687713623","-0.020508346557617685","15.3277537","74.1245331","0.17109725","0.27327876174073523","0.0"
"30a6e302-8ea2-4f91-bdad-e5987a5161ae","3","1768025151656","-0.36195","6.4890003","7.326","-0.047575","0.26895","0.1296625","-0.06942510604858398","-0.26351630687713623","-0.020508346557617685","15.3277537","74.1245331","0.17109725","0.27327876174073523","0.0"
"30a6e302-8ea2-4f91-bdad-e5987a5161ae","3","1768025151667","0.076950006","6.0100503","6.7320004","-0.047575","0.26895","0.1296625","-0.07239437103271484","-0.6703591346740723","-0.8104529953002935","15.3277537","74.1245331","0.17109725","1.054256312283408","0.0"
"30a6e302-8ea2-4f91-bdad-e5987a5161ae","3","1768025151678","0.076950006","6.0100503","6.7320004","-0.047575","0.26895","0.1296625","-0.07239437103271484","-0.6703591346740723","-0.8104529953002935","15.3277537","74.1245331","0.17109725","1.054256312283408","0.0"
"30a6e302-8ea2-4f91-bdad-e5987a5161ae","3","1768025151689","0.28800002","5.742","6.1579504","-0.0402875","0.221925","0.1087625","0.07696342468261719","-0.8894079923629761","-1.4328351593017583","15.3277537","74.1245331","0.17109725","1.6881903149080413","0.0"
"30a6e302-8ea2-4f91-bdad-e5987a5161ae","3","1768025151699","0.28800002","5.742","6.1579504","-0.0402875","0.221925","0.1087625","0.07696342468261719","-0.8894079923629761","-1.4328351593017583","15.3277537","74.1245331","0.17109725","1.6881903149080413","0.0"
"30a6e302-8ea2-4f91-bdad-e5987a5161ae","3","1768025151710","0.40305","5.56995","5.8699503","-0.0614625","0.1535875","0.0763125","0.12574076652526855","-1.0055485963821411","-1.7715821838378911","15.3277537","74.1245331","0.17109725","2.0409414871926845","0.0"
"30a6e302-8ea2-4f91-bdad-e5987a5161ae","3","1768025151721","0.40305","5.56995","5.8699503","-0.0614625","0.1535875","0.0763125","0.12574076652526855","-1.0055485963821411","-1.7715821838378911","15.3277537","74.1245331","0.17109725","2.0409414871926845","0.0"
"30a6e302-8ea2-4f91-bdad-e5987a5161ae","3","1768025151731","0.26895002","5.532","6.19605","-0.15675","0.0891","0.056925","-0.08069252967834473","-0.8547046184539795","-1.5438418960571294","15.3277537","74.1245331","0.17109725","1.7664877778161177","0.0"
"30a6e302-8ea2-4f91-bdad-e5987a5161ae","3","1768025151742","0.26895002","5.532","6.19605","-0.15675","0.0891","0.056925","-0.08069252967834473","-0.8547046184539795","-1.5438418960571294","15.3277537","74.1245331","0.17109725","1.7664877778161177","0.0"
"30a6e302-8ea2-4f91-bdad-e5987a5161ae","3","1768025151753","0.36495003","5.34","6.2719502","-0.2541","0.0295625","0.02585","-0.25632214546203613","-0.9162493944168091","-1.6197047805786138","15.3277537","74.1245331","0.17109725","1.8784721374704088","0.0"
"30a6e302-8ea2-4f91-bdad-e5987a5161ae","3","1768025151763","0.36495003","5.34","6.2719502","-0.2541","0.0295625","0.02585","-0.25632214546203613","-0.9162493944168091","-1.6197047805786138","15.3277537","74.1245331","0.17109725","1.8784721374704088","0.0"
"30a6e302-8ea2-4f91-bdad-e5987a5161ae","3","1768025151774","0.36495003","5.34","6.2719502","-0.2541","0.0295625","0.02585","-0.25632214546203613","-0.9162493944168091","-1.6197047805786138","15.3277537","74.1245331","0.17109725","1.8784721374704088","0.0"
"30a6e302-8ea2-4f91-bdad-e5987a5161ae","3","1768025151785","0.46005002","5.32095","6.1770005","0.121","-0.0444125","0.149325","-0.17389631271362305","-1.0170280933380127","-1.7096973037719732","15.3277537","74.1245331","0.17109725","1.9969103486985345","0.0"
"30a6e302-8ea2-4f91-bdad-e5987a5161ae","4","1768025151795","0.46005002","5.32095","6.1770005","0.121","-0.0444125","0.149325","-0.17389631271362305","-1.0170280933380127","-1.7096973037719732","15.3277524","74.1245324","0.15636915","1.9969103486985345","0.0"
"30a6e302-8ea2-4f91-bdad-e5987a5161ae","4","1768025151806","0.46005002","5.32095","6.1770005","0.121","-0.0444125","0.149325","-0.17389631271362305","-1.0170280933380127","-1.7096973037719732","15.3277524","74.1245324","0.15636915","1.9969103486985345","0.0"
"30a6e302-8ea2-4f91-bdad-e5987a5161ae","4","1768025151817","0.42195","5.4550505","5.8699503","0.27995","-0.097075","0.2110625","0.11424922943115234","-0.9896124601364136","-1.8476167297363286","15.3277524","74.1245324","0.15636915","2.099064860285271","0.0"
"30a6e302-8ea2-4f91-bdad-e5987a5161ae","4","1768025151827","0.42195","5.493","5.9280005","0.418275","-0.17875","0.275825","0.05720663070678711","-0.9375849962234497","-1.7719684219360357","15.3277524","74.1245324","0.15636915","2.005544891564044","0.0"
"30a6e302-8ea2-4f91-bdad-e5987a5161ae","4","1768025151838","0.42195","5.493","5.9280005","0.418275","-0.17875","0.275825","0.05720663070678711","-0.9375849962234497","-1.7719684219360357","15.3277524","74.1245324","0.15636915","2.005544891564044","0.0"
"30a6e302-8ea2-4f91-bdad-e5987a5161ae","4","1768025151849","0.46005002","5.6280003","6.19605","0.3102","-0.263725","0.27335","-0.09697961807250977","-0.8977171778678894","-1.4756265258789067","15.3277524","74.1245324","0.15636915","1.7299638209043648","0.0"
"30a6e302-8ea2-4f91-bdad-e5987a5161ae","4","1768025151859","0.46005002","5.6280003","6.19605","0.3102","-0.263725","0.27335","-0.09697961807250977","-0.8977171778678894","-1.4756265258789067","15.3277524","74.1245324","0.15636915","1.7299638209043648","0.0"
"30a6e302-8ea2-4f91-bdad-e5987a5161ae","4","1768025151870","0.46005002","5.6280003","6.19605","0.3102","-0.263725","0.27335","-0.09697961807250977","-0.8977171778678894","-1.4756265258789067","15.3277524","74.1245324","0.15636915","1.7299638209043648","0.0"
"30a6e302-8ea2-4f91-bdad-e5987a5161ae","4","1768025151881","0.70905006","5.6850004","6.3109503","0.1837","-0.3685","0.27981248","-0.22081565856933594","-1.0501071214675903","-1.3543162918090825","15.3277524","74.1245324","0.15636915","1.7279054198323072","0.0"
"30a6e302-8ea2-4f91-bdad-e5987a5161ae","4","1768025151891","0.70905006","5.6850004","6.3109503","0.1837","-0.3685","0.27981248","-0.22081565856933594","-1.0501071214675903","-1.3543162918090825","15.3277524","74.1245324","0.15636915","1.7279054198323072","0.0"
"30a6e302-8ea2-4f91-bdad-e5987a5161ae","4","1768025151902","0.86295","5.8000503","6.6550503","0.0955625","-0.451275","0.2993375","-0.4102344512939453","-1.0780729055404663","-1.0154319381713872","15.3277524","74.1245324","0.15636915","1.5367613724151865","0.0"
"30a6e302-8ea2-4f91-bdad-e5987a5161ae","4","1768025151912","0.86295","5.8000503","6.6550503","0.0955625","-0.451275","0.2993375","-0.4102344512939453","-1.0780729055404663","-1.0154319381713872","15.3277524","74.1245324","0.15636915","1.5367613724151865","0.0"
"30a6e302-8ea2-4f91-bdad-e5987a5161ae","4","1768025151924","0.786","5.9340005","7.689","0.073699996","-0.460625","0.29273748","-0.9500908851623535","-0.7742093205451965","-0.14310699462890675","15.3277524","74.1245324","0.15636915","1.2339174907583397","0.0"
"30a6e302-8ea2-4f91-bdad-e5987a5161ae","4","1768025151934","0.786","5.9340005","7.689","0.073699996","-0.460625","0.29273748","-0.9500908851623535","-0.7742093205451965","-0.14310699462890675","15.3277524","74.1245324","0.15636915","1.2339174907583397","0.0"
"30a6e302-8ea2-4f91-bdad-e5987a5161ae","4","1768025151945","0.537","6.2790003","9.259951","0.033825","-0.416075","0.245575","-1.6531786918640137","-0.25030505657196045","1.2654346847534175","15.3277524","74.1245324","0.15636915","2.0968970766243356","0.0"
"30a6e302-8ea2-4f91-bdad-e5987a5161ae","4","1768025151956","0.537","6.2790003","9.259951","0.033825","-0.416075","0.245575","-1.6531786918640137","-0.25030505657196045","1.2654346847534175","15.3277524","74.1245324","0.15636915","2.0968970766243356","0.0"
"30a6e302-8ea2-4f91-bdad-e5987a5161ae","4","1768025151966","0.537","6.2790003","9.259951","0.033825","-0.416075","0.245575","-1.6531786918640137","-0.25030505657196045","1.2654346847534175","15.3277524","74.1245324","0.15636915","2.0968970766243356","0.0"
"30a6e302-8ea2-4f91-bdad-e5987a5161ae","4","1768025151977","0.30705002","6.4890003","10.332001","-0.0683375","-0.376475","0.1747625","-2.1293649673461914","0.21763432025909424","2.205410423278808","15.3277524","74.1245324","0.15636915","3.0733361346625747","0.0"
"30a6e302-8ea2-4f91-bdad-e5987a5161ae","4","1768025151988","0.30705002","6.4890003","10.332001","-0.0683375","-0.376475","0.1747625","-2.1293649673461914","0.21763432025909424","2.205410423278808","15.3277524","74.1245324","0.15636915","3.0733361346625747","0.0"
"30a6e302-8ea2-4f91-bdad-e5987a5161ae","4","1768025151998","0.17295001","6.46995","10.600051","-0.3161125","-0.3425125","0.06765","-2.233152389526367","0.5031764507293701","2.3970102691650386","15.3277524","74.1245324","0.15636915","3.314485535629712","0.0"
"30a6e302-8ea2-4f91-bdad-e5987a5161ae","4","1768025152009","0.17295001","6.46995","10.600051","-0.3161125","-0.3425125","0.06765","-2.233152389526367","0.5031764507293701","2.3970102691650386","15.3277524","74.1245324","0.15636915","3.314485535629712","0.0"
"30a6e302-8ea2-4f91-bdad-e5987a5161ae","4","1768025152020","0.40305","6.4510503","10.332001","-0.5713125","-0.2794","-0.0460625","-1.9860501289367676","0.31918299198150635","2.210086288452148","15.3277524","74.1245324","0.15636915","2.9884367651707486","0.0"
"30a6e302-8ea2-4f91-bdad-e5987a5161ae","4","1768025152031","0.40305","6.4510503","10.332001","-0.5713125","-0.2794","-0.0460625","-1.9860501289367676","0.31918299198150635","2.210086288452148","15.3277524","74.1245324","0.15636915","2.9884367651707486","0.0"
"30a6e302-8ea2-4f91-bdad-e5987a5161ae","4","1768025152041","0.40305","6.4510503","10.332001","-0.5713125","-0.2794","-0.0460625","-1.9860501289367676","0.31918299198150635","2.210086288452148","15.3277524","74.1245324","0.15636915","2.9884367651707486","0.0"
"30a6e302-8ea2-4f91-bdad-e5987a5161ae","4","1768025152052","0.786","6.3169503","9.624001","-0.6018375","-0.2358125","-0.0803","-1.5202970504760742","-0.1147986650466919","1.6275934600830073","15.3277524","74.1245324","0.15636915","2.230144014741588","0.0"
"30a6e302-8ea2-4f91-bdad-e5987a5161ae","4","1768025152063","0.786","6.3169503","9.624001","-0.6018375","-0.2358125","-0.0803","-1.5202970504760742","-0.1147986650466919","1.6275934600830073","15.3277524","74.1245324","0.15636915","2.230144014741588","0.0"
"30a6e302-8ea2-4f91-bdad-e5987a5161ae","4","1768025152073","1.092","6.35505","9.298051","-0.583","-0.1821875","-0.108075","-1.1583662033081055","-0.45438873767852783","1.4365372085571284","15.3277524","74.1245324","0.15636915","1.9005053373944067","0.0"
"30a6e302-8ea2-4f91-bdad-e5987a5161ae","4","1768025152084","1.092","6.35505","9.298051","-0.583","-0.1821875","-0.108075","-1.1583662033081055","-0.45438873767852783","1.4365372085571284","15.3277524","74.1245324","0.15636915","1.9005053373944067","0.0"
"30a6e302-8ea2-4f91-bdad-e5987a5161ae","4","1768025152095","1.131","6.432","9.030001","-0.562375","-0.170775","-0.1318625","-0.7742142677307129","-0.543777585029602","1.2938551330566401","15.3277524","74.1245324","0.15636915","1.6028608485066462","0.0"
"30a6e302-8ea2-4f91-bdad-e5987a5161ae","4","1768025152106","1.131","6.432","9.030001","-0.562375","-0.170775","-0.1318625","-0.7742142677307129","-0.543777585029602","1.2938551330566401","15.3277524","74.1245324","0.15636915","1.6028608485066462","0.0"
"30a6e302-8ea2-4f91-bdad-e5987a5161ae","4","1768025152116","0.80505","6.432","9.06795","-0.5259375","-0.186175","-0.1434125","-0.5732707977294922","-0.2269458770751953","1.3195242309570308","15.3277524","74.1245324","0.15636915","1.4564642236366745","0.0"
"30a6e302-8ea2-4f91-bdad-e5987a5161ae","4","1768025152127","0.80505","6.432","9.06795","-0.5259375","-0.186175","-0.1434125","-0.5732707977294922","-0.2269458770751953","1.3195242309570308","15.3277524","74.1245324","0.15636915","1.4564642236366745","0.0"
"30a6e302-8ea2-4f91-bdad-e5987a5161ae","4","1768025152138","-0.036000002","6.1249504","9.56595","-0.488675","-0.22453749","-0.1615625","-0.7727885246276855","0.7067524790763855","1.5004829788208003","15.3277524","74.1245324","0.15636915","1.8297951634562253","0.0"
"30a6e302-8ea2-4f91-bdad-e5987a5161ae","4","1768025152149","-0.036000002","6.1249504","9.56595","-0.488675","-0.22453749","-0.1615625","-0.7727885246276855","0.7067524790763855","1.5004829788208003","15.3277524","74.1245324","0.15636915","1.8297951634562253","0.0"
"30a6e302-8ea2-4f91-bdad-e5987a5161ae","4","1768025152159","-0.036000002","6.1249504","9.56595","-0.488675","-0.22453749","-0.1615625","-0.7727885246276855","0.7067524790763855","1.5004829788208003","15.3277524","74.1245324","0.15636915","1.8297951634562253","0.0"
"30a6e302-8ea2-4f91-bdad-e5987a5161ae","4","1768025152170","-0.49605003","5.8000503","9.183001","-0.4873","-0.2118875","-0.1989625","-0.5596685409545898","1.1268837451934814","0.9895862960815425","15.3277524","74.1245324","0.15636915","1.6007426052641671","0.0"
"30a6e302-8ea2-4f91-bdad-e5987a5161ae","4","1768025152181","-0.49605003","5.8000503","9.183001","-0.4873","-0.2118875","-0.1989625","-0.5596685409545898","1.1268837451934814","0.9895862960815425","15.3277524","74.1245324","0.15636915","1.6007426052641671","0.0"
"30a6e302-8ea2-4f91-bdad-e5987a5161ae","4","1768025152191","-0.381","5.4550505","8.149051","-0.4415125","-0.18259999","-0.246675","-0.13216733932495117","0.8444042801856995","-0.033534584045410654","15.3277524","74.1245324","0.15636915","0.8553428332003868","0.0"
"30a6e302-8ea2-4f91-bdad-e5987a5161ae","4","1768025152202","-0.381","5.4550505","8.149051","-0.4415125","-0.18259999","-0.246675","-0.13216733932495117","0.8444042801856995","-0.033534584045410654","15.3277524","74.1245324","0.15636915","0.8553428332003868","0.0"
"30a6e302-8ea2-4f91-bdad-e5987a5161ae","4","1768025152213","-0.28500003","5.05305","7.1920505","-0.353925","-0.098725","-0.2913625","0.15286564826965332","0.6233116984367371","-1.0391259765625005","15.3277524","74.1245324","0.15636915","1.2213386815277576","0.0"
"30a6e302-8ea2-4f91-bdad-e5987a5161ae","4","1768025152223","-0.28500003","5.05305","7.1920505","-0.353925","-0.098725","-0.2913625","0.15286564826965332","0.6233116984367371","-1.0391259765625005","15.3277524","74.1245324","0.15636915","1.2213386815277576","0.0"
"30a6e302-8ea2-4f91-bdad-e5987a5161ae","4","1768025152234","-0.28500003","4.76595","6.40605","-0.2624875","-0.0257125","-0.31501248","0.41640591621398926","0.5014992952346802","-1.847079811096192","15.3277524","74.1245324","0.15636915","1.9587238852727653","0.0"
"30a6e302-8ea2-4f91-bdad-e5987a5161ae","4","1768025152245","-0.28500003","4.76595","6.40605","-0.2624875","-0.0257125","-0.31501248","0.41640591621398926","0.5014992952346802","-1.847079811096192","15.3277524","74.1245324","0.15636915","1.9587238852727653","0.0"
"30a6e302-8ea2-4f91-bdad-e5987a5161ae","4","1768025152256","-0.63000005","4.7080503","6.71295","-0.1354375","0.0011","-0.2861375","0.3327469825744629","0.8511562943458557","-1.6374145126342778","15.3277524","74.1245324","0.15636915","1.8751836918025733","0.0"
"30a6e302-8ea2-4f91-bdad-e5987a5161ae","4","1768025152266","-0.63000005","4.7080503","6.71295","-0.1354375","0.0011","-0.2861375","0.3327469825744629","0.8511562943458557","-1.6374145126342778","15.3277524","74.1245324","0.15636915","1.8751836918025733","0.0"
"30a6e302-8ea2-4f91-bdad-e5987a5161ae","4","1768025152277","-0.63000005","4.7080503","6.71295","-0.1354375","0.0011","-0.2861375","0.3327469825744629","0.8511562943458557","-1.6374145126342778","15.3277524","74.1245324","0.15636915","1.8751836918025733","0.0"
"30a6e302-8ea2-4f91-bdad-e5987a5161ae","4","1768025152288","-0.64905006","4.689","7.077","-0.0121","0.022824999","-0.2616625","0.14591765403747559","0.891486406326294","-1.3438392257690435","15.3277524","74.1245324","0.15636915","1.6192417482080657","0.0"
"30a6e302-8ea2-4f91-bdad-e5987a5161ae","4","1768025152299","-0.64905006","4.689","7.077","-0.0121","0.022824999","-0.2616625","0.14591765403747559","0.891486406326294","-1.3438392257690435","15.3277524","74.1245324","0.15636915","1.6192417482080657","0.0"
"30a6e302-8ea2-4f91-bdad-e5987a5161ae","4","1768025152310","-0.30495003","4.76595","6.8089504","0.0268125","0.0776875","-0.23925","0.2536346912384033","0.46053481101989746","-1.509839591979981","15.3277524","74.1245324","0.15636915","1.598761540152567","0.0"
"30a6e302-8ea2-4f91-bdad-e5987a5161ae","4","1768025152320","-0.30495003","4.76595","6.8089504","0.0268125","0.0776875","-0.23925","0.2536346912384033","0.46053481101989746","-1.509839591979981","15.3277524","74.1245324","0.15636915","1.598761540152567","0.0"
"30a6e302-8ea2-4f91-bdad-e5987a5161ae","4","1768025152332","0.0010500001","4.90005","6.46395","0.0198","0.16499999","-0.2492875","0.44562840461730957","0.04194056987762451","-1.7110620117187505","15.3277524","74.1245324","0.15636915","1.768637015995777","0.0"
"30a6e302-8ea2-4f91-bdad-e5987a5161ae","4","1768025152343","0.0010500001","4.90005","6.46395","0.0198","0.16499999","-0.2492875","0.44562840461730957","0.04194056987762451","-1.7110620117187505","15.3277524","74.1245324","0.15636915","1.768637015995777","0.0"
"30a6e302-8ea2-4f91-bdad-e5987a5161ae","4","1768025152354","0.26895002","4.938","7.2300005","0.013612499","0.2674375","-0.2475","-0.029297590255737305","-0.15009593963623047","-1.0518212890625005","15.3277524","74.1245324","0.15636915","1.062880597252192","0.0"
"30a6e302-8ea2-4f91-bdad-e5987a5161ae","4","1768025152365","0.26895002","4.938","7.2300005","0.013612499","0.2674375","-0.2475","-0.029297590255737305","-0.15009593963623047","-1.0518212890625005","15.3277524","74.1245324","0.15636915","1.062880597252192","0.0"
"30a6e302-8ea2-4f91-bdad-e5987a5161ae","4","1768025152375","0.26895002","4.938","7.2300005","0.013612499","0.2674375","-0.2475","-0.029297590255737305","-0.15009593963623047","-1.0518212890625005","15.3277524","74.1245324","0.15636915","1.062880597252192","0.0"
"30a6e302-8ea2-4f91-bdad-e5987a5161ae","4","1768025152386","0.30705002","5.11005","8.149051","-0.0158125","0.3315125","-0.194425","-0.40893983840942383","-0.14959442615509033","-0.19624382019043018","15.3277524","74.1245324","0.15636915","0.47762110583382966","0.0"
"30a6e302-8ea2-4f91-bdad-e5987a5161ae","4","1768025152396","0.30705002","5.11005","8.149051","-0.0158125","0.3315125","-0.194425","-0.40893983840942383","-0.14959442615509033","-0.19624382019043018","15.3277524","74.1245324","0.15636915","0.47762110583382966","0.0"
"30a6e302-8ea2-4f91-bdad-e5987a5161ae","4","1768025152407","0.135","5.30205","9.01095","-0.021175","0.3073125","-0.1335125","-0.6672201156616211","0.018038272857666016","0.6246389770507808","15.3277524","74.1245324","0.15636915","0.9141563945421157","0.0"
"30a6e302-8ea2-4f91-bdad-e5987a5161ae","4","1768025152417","0.135","5.30205","9.01095","-0.021175","0.3073125","-0.1335125","-0.6672201156616211","0.018038272857666016","0.6246389770507808","15.3277524","74.1245324","0.15636915","0.9141563945421157","0.0"
"30a6e302-8ea2-4f91-bdad-e5987a5161ae","4","1768025152428","0.40305","5.3590503","8.91495","-0.0559625","0.2451625","-0.0540375","-0.6353387832641602","-0.34653234481811523","0.5743374252319331","15.3277524","74.1245324","0.15636915","0.923906658460026","0.0"
"30a6e302-8ea2-4f91-bdad-e5987a5161ae","4","1768025152438","0.40305","5.3590503","8.91495","-0.0559625","0.2451625","-0.0540375","-0.6353387832641602","-0.34653234481811523","0.5743374252319331","15.3277524","74.1245324","0.15636915","0.923906658460026","0.0"
"30a6e302-8ea2-4f91-bdad-e5987a5161ae","4","1768025152449","0.57495004","5.97195","8.56995","-0.0774125","0.1854875","0.03025","0.004953861236572266","-0.7465699911117554","0.6246256256103511","15.3277524","74.1245324","0.15636915","0.9734210109397065","0.0"
"30a6e302-8ea2-4f91-bdad-e5987a5161ae","4","1768025152460","0.57495004","5.97195","8.56995","-0.0774125","0.1854875","0.03025","0.004953861236572266","-0.7465699911117554","0.6246256256103511","15.3277524","74.1245324","0.15636915","0.9734210109397065","0.0"
"30a6e302-8ea2-4f91-bdad-e5987a5161ae","4","1768025152470","0.57495004","5.97195","8.56995","-0.0774125","0.1854875","0.03025","0.004953861236572266","-0.7465699911117554","0.6246256256103511","15.3277524","74.1245324","0.15636915","0.9734210109397065","0.0"
"30a6e302-8ea2-4f91-bdad-e5987a5161ae","4","1768025152481","0.34605002","6.4510503","8.45505","-0.0515625","0.12045","0.1621125","0.5101633071899414","-0.6709297895431519","0.7972263717651362","15.3277524","74.1245324","0.15636915","1.1601651909694584","0.0"
"30a6e302-8ea2-4f91-bdad-e5987a5161ae","4","1768025152492","0.34605002","6.4510503","8.45505","-0.0515625","0.12045","0.1621125","0.5101633071899414","-0.6709297895431519","0.7972263717651362","15.3277524","74.1245324","0.15636915","1.1601651909694584","0.0"
"30a6e302-8ea2-4f91-bdad-e5987a5161ae","4","1768025152502","0.0010500001","6.3169503","9.451051","-0.121825","0.068475","0.2712875","-0.03888845443725586","-0.1807243824005127","1.5562681579589839","15.3277524","74.1245324","0.15636915","1.5672090459666235","0.0"
"30a6e302-8ea2-4f91-bdad-e5987a5161ae","4","1768025152513","0.0010500001","6.3169503","9.451051","-0.121825","0.068475","0.2712875","-0.03888845443725586","-0.1807243824005127","1.5562681579589839","15.3277524","74.1245324","0.15636915","1.5672090459666235","0.0"
"30a6e302-8ea2-4f91-bdad-e5987a5161ae","4","1768025152524","-0.26595002","5.8380003","10.830001","-0.1203125","0.058849998","0.3026375","-1.059196949005127","0.3610316514968872","2.4451898956298823","15.3277524","74.1245324","0.15636915","2.6890882573569086","0.0"
"30a6e302-8ea2-4f91-bdad-e5987a5161ae","4","1768025152535","-0.26595002","5.8380003","10.830001","-0.1203125","0.058849998","0.3026375","-1.059196949005127","0.3610316514968872","2.4451898956298823","15.3277524","74.1245324","0.15636915","2.6890882573569086","0.0"
"30a6e302-8ea2-4f91-bdad-e5987a5161ae","4","1768025152545","-0.26595002","5.8380003","10.830001","-0.1203125","0.058849998","0.3026375","-1.059196949005127","0.3610316514968872","2.4451898956298823","15.3277524","74.1245324","0.15636915","2.6890882573569086","0.0"
"30a6e302-8ea2-4f91-bdad-e5987a5161ae","4","1768025152556","-0.41895002","5.2639503","11.385","-0.144925","0.062975","0.3045625","-1.7351741790771484","0.7044886350631714","2.5995039367675776","15.3277524","74.1245324","0.15636915","3.203834325607265","0.0"
"30a6e302-8ea2-4f91-bdad-e5987a5161ae","4","1768025152567","-0.41895002","5.2639503","11.385","-0.144925","0.062975","0.3045625","-1.7351741790771484","0.7044886350631714","2.5995039367675776","15.3277524","74.1245324","0.15636915","3.203834325607265","0.0"
"30a6e302-8ea2-4f91-bdad-e5987a5161ae","4","1768025152578","0.15405001","4.66995","9.93","-0.24653749","0.0664125","0.2872375","-1.5037815570831299","0.09734833240509033","1.0604290390014643","15.3277524","74.1245324","0.15636915","1.8426463078960607","0.0"
"30a6e302-8ea2-4f91-bdad-e5987a5161ae","4","1768025152589","0.15405001","4.66995","9.93","-0.24653749","0.0664125","0.2872375","-1.5037815570831299","0.09734833240509033","1.0604290390014643","15.3277524","74.1245324","0.15636915","1.8426463078960607","0.0"
"30a6e302-8ea2-4f91-bdad-e5987a5161ae","4","1768025152599","0.42195","4.689","8.41695","-0.3411375","0.0738375","0.2789875","-0.6369237899780273","-0.33007389307022095","-0.19255786895752003","15.3277524","74.1245324","0.15636915","0.7427645804856121","0.0"
"30a6e302-8ea2-4f91-bdad-e5987a5161ae","4","1768025152610","0.42195","4.689","8.41695","-0.3411375","0.0738375","0.2789875","-0.6369237899780273","-0.33007389307022095","-0.19255786895752003","15.3277524","74.1245324","0.15636915","0.7427645804856121","0.0"
"30a6e302-8ea2-4f91-bdad-e5987a5161ae","4","1768025152621","0.61395","4.6320004","7.5750003","-0.3364625","0.103125","0.31707498","-0.19646263122558594","-0.5939510464668274","-0.931846199035645","15.3277524","74.1245324","0.15636915","1.122369257296501","0.0"
"30a6e302-8ea2-4f91-bdad-e5987a5161ae","4","1768025152631","0.61395","4.6320004","7.5750003","-0.3364625","0.103125","0.31707498","-0.19646263122558594","-0.5939510464668274","-0.931846199035645","15.3277524","74.1245324","0.15636915","1.122369257296501","0.0"
"30a6e302-8ea2-4f91-bdad-e5987a5161ae","4","1768025152642","0.537","4.7470503","7.4020505","-0.2696375","0.117975","0.3565375","0.08165669441223145","-0.5498123168945312","-1.0177169418334966","15.3277524","74.1245324","0.15636915","1.1596159593788755","0.0"
"30a6e302-8ea2-4f91-bdad-e5987a5161ae","4","1768025152653","0.537","4.7470503","7.4020505","-0.2696375","0.117975","0.3565375","0.08165669441223145","-0.5498123168945312","-1.0177169418334966","15.3277524","74.1245324","0.15636915","1.1596159593788755","0.0"
"30a6e302-8ea2-4f91-bdad-e5987a5161ae","4","1768025152664","0.40305","4.8229504","7.11495","-0.223575","0.116875","0.398475","0.378631591796875","-0.44669920206069946","-1.2249599075317388","15.3277524","74.1245324","0.15636915","1.3577292935222645","0.0"
"30a6e302-8ea2-4f91-bdad-e5987a5161ae","4","1768025152675","0.40305","4.8229504","7.11495","-0.223575","0.116875","0.398475","0.378631591796875","-0.44669920206069946","-1.2249599075317388","15.3277524","74.1245324","0.15636915","1.3577292935222645","0.0"
"30a6e302-8ea2-4f91-bdad-e5987a5161ae","4","1768025152686","0.40305","4.8229504","7.11495","-0.223575","0.116875","0.398475","0.378631591796875","-0.44669920206069946","-1.2249599075317388","15.3277524","74.1245324","0.15636915","1.3577292935222645","0.0"
"30a6e302-8ea2-4f91-bdad-e5987a5161ae","4","1768025152696","0.441","4.9759502","6.9619503","-0.1522125","0.124437496","0.4063125","0.6270854473114014","-0.49927783012390137","-1.2788339233398442","15.3277524","74.1245324","0.15636915","1.509281522237568","0.0"
"30a6e302-8ea2-4f91-bdad-e5987a5161ae","4","1768025152707","0.441","4.9759502","6.9619503","-0.1522125","0.124437496","0.4063125","0.6270854473114014","-0.49927783012390137","-1.2788339233398442","15.3277524","74.1245324","0.15636915","1.509281522237568","0.0"
"30a6e302-8ea2-4f91-bdad-e5987a5161ae","4","1768025152718","0.46005002","5.16795","6.7699504","-0.0627","0.135025","0.3947625","0.9142799377441406","-0.5349932909011841","-1.3465810394287114","15.3277524","74.1245324","0.15636915","1.7133026941027139","0.0"
"30a6e302-8ea2-4f91-bdad-e5987a5161ae","4","1768025152728","0.46005002","5.16795","6.7699504","-0.0627","0.135025","0.3947625","0.9142799377441406","-0.5349932909011841","-1.3465810394287114","15.3277524","74.1245324","0.15636915","1.7133026941027139","0.0"
"30a6e302-8ea2-4f91-bdad-e5987a5161ae","4","1768025152739","0.537","5.34","7.2109504","-0.044","0.138875","0.3686375","0.8365457057952881","-0.5644434690475464","-0.8778462982177739","15.3277524","74.1245324","0.15636915","1.3375422501474912","0.0"
