"session_id","window_id","timestamp","accel_x","accel_y","accel_z","gyro_x","gyro_y","gyro_z","linear_accel_x","linear_accel_y","linear_accel_z","latitude","longitude","speed","vibration_intensity","anomaly_score"
"14594a3f-3ec4-445b-aa08-fb7d7b251653","1","1768025111275","0.28800002","7.00605","7.0579505","-0.012375","0.024475","-0.04235","0.09892034530639648","0.059458255767822266","0.138318481445312","15.3277282","74.1245359","0.009321942","0.1801458331569887","0.0"
"14594a3f-3ec4-445b-aa08-fb7d7b251653","1","1768025111285","0.28800002","7.00605","7.0579505","-0.012375","0.024475","-0.04235","0.09892034530639648","0.059458255767822266","0.138318481445312","15.3277282","74.1245359","0.009321942","0.1801458331569887","0.0"
"14594a3f-3ec4-445b-aa08-fb7d7b251653","1","1768025111296","0.28800002","7.00605","7.0579505","-0.012375","0.024475","-0.04235","0.09892034530639648","0.059458255767822266","0.138318481445312","15.3277282","74.1245359","0.009321942","0.1801458331569887","0.0"
"14594a3f-3ec4-445b-aa08-fb7d7b251653","1","1768025111306","0.26895002","7.1020503","7.11495","-0.00825","0.0114124995","-0.0589875","0.07679080963134766","0.03676867485046387","0.24617904663085888","15.3277282","74.1245359","0.009321942","0.2604858669758795","0.0"
"14594a3f-3ec4-445b-aa08-fb7d7b251653","1","1768025111317","0.26895002","7.1020503","7.11495","-0.00825","0.0114124995","-0.0589875","0.07679080963134766","0.03676867485046387","0.24617904663085888","15.3277282","74.1245359","0.009321942","0.2604858669758795","0.0"
"14594a3f-3ec4-445b-aa08-fb7d7b251653","1","1768025111327","0.21195","7.0639505","6.7890005","0.0011","0.03575","-0.0620125","-0.09227180480957031","-0.08847975730895996","-0.011096534729004404","15.3277282","74.1245359","0.009321942","0.1283194704604874","0.0"
"14594a3f-3ec4-445b-aa08-fb7d7b251653","1","1768025111338","0.21195","7.0639505","6.7890005","0.0011","0.03575","-0.0620125","-0.09227180480957031","-0.08847975730895996","-0.011096534729004404","15.3277282","74.1245359","0.009321942","0.1283194704604874","0.0"
"14594a3f-3ec4-445b-aa08-fb7d7b251653","1","1768025111349","0.26895002","7.1400003","6.6550503","0.0127875","0.0587125","-0.044825","-0.2568173408508301","-0.08614373207092285","-0.04945331573486378","15.3277282","74.1245359","0.009321942","0.2753570764915449","0.0"
"14594a3f-3ec4-445b-aa08-fb7d7b251653","1","1768025111359","0.26895002","7.1400003","6.6550503","0.0127875","0.0587125","-0.044825","-0.2568173408508301","-0.08614373207092285","-0.04945331573486378","15.3277282","74.1245359","0.009321942","0.2753570764915449","0.0"
"14594a3f-3ec4-445b-aa08-fb7d7b251653","1","1768025111370","0.28800002","6.9490504","6.8280005","0.023924999","0.064625","-0.0378125","-0.03802680969238281","0.06061208248138428","-0.0637841796875005","15.3277282","74.1245359","0.009321942","0.095855539101912","0.0"
"14594a3f-3ec4-445b-aa08-fb7d7b251653","1","1768025111381","0.28800002","6.9490504","6.8280005","0.023924999","0.064625","-0.0378125","-0.03802680969238281","0.06061208248138428","-0.0637841796875005","15.3277282","74.1245359","0.009321942","0.095855539101912","0.0"
"14594a3f-3ec4-445b-aa08-fb7d7b251653","1","1768025111391","0.28800002","6.9490504","6.8280005","0.023924999","0.064625","-0.0378125","-0.03802680969238281","0.06061208248138428","-0.0637841796875005","15.3277282","74.1245359","0.009321942","0.095855539101912","0.0"
"14594a3f-3ec4-445b-aa08-fb7d7b251653","1","1768025111402","0.32595003","6.9490504","7.0579505","0.0526625","0.052249998","-0.0221375","0.09087705612182617","0.17979049682617188","0.09805816650390575","15.3277282","74.1245359","0.009321942","0.22405058825291882","0.0"
"14594a3f-3ec4-445b-aa08-fb7d7b251653","1","1768025111413","0.32595003","6.9490504","7.0579505","0.0526625","0.052249998","-0.0221375","0.09087705612182617","0.17979049682617188","0.09805816650390575","15.3277282","74.1245359","0.009321942","0.22405058825291882","0.0"
"14594a3f-3ec4-445b-aa08-fb7d7b251653","1","1768025111424","0.55605","6.7759504","7.4410505","0.082499996","0.0389125","-0.022","0.3490638732910156","0.5711188316345215","0.24703353881835888","15.3277282","74.1245359","0.009321942","0.7134759118468041","0.0"
"14594a3f-3ec4-445b-aa08-fb7d7b251653","1","1768025111434","0.55605","6.7759504","7.4410505","0.082499996","0.0389125","-0.022","0.3490638732910156","0.5711188316345215","0.24703353881835888","15.3277282","74.1245359","0.009321942","0.7134759118468041","0.0"
"14594a3f-3ec4-445b-aa08-fb7d7b251653","1","1768025111444","0.67095006","6.834","6.8280005","0.0595375","0.043175","-0.006325","-0.12332296371459961","0.4831979274749756","-0.13908248901367237","15.3277282","74.1245359","0.009321942","0.5177187742835897","0.0"
"14594a3f-3ec4-445b-aa08-fb7d7b251653","1","1768025111455","0.67095006","6.834","6.8280005","0.0595375","0.043175","-0.006325","-0.12332296371459961","0.4831979274749756","-0.13908248901367237","15.3277282","74.1245359","0.009321942","0.5177187742835897","0.0"
"14594a3f-3ec4-445b-aa08-fb7d7b251653","1","1768025111466","0.91995007","6.642","6.675","0.038225","0.045925","0.020624999","-0.21260547637939453","0.7218363285064697","-0.3785710906982427","15.3277282","74.1245359","0.009321942","0.8423567204282676","0.0"
"14594a3f-3ec4-445b-aa08-fb7d7b251653","1","1768025111476","1.437","6.0100503","6.71295","0.038225","0.045925","0.020624999","-0.014936447143554688","1.4074867963790894","-0.7951160049438482","15.3277282","74.1245359","0.009321942","1.6166173451848802","0.0"
"14594a3f-3ec4-445b-aa08-fb7d7b251653","1","1768025111487","1.437","6.0100503","6.71295","0.038225","0.045925","0.020624999","-0.014936447143554688","1.4074867963790894","-0.7951160049438482","15.3277282","74.1245359","0.009321942","1.6166173451848802","0.0"
"14594a3f-3ec4-445b-aa08-fb7d7b251653","1","1768025111498","0.51795","6.7759504","6.5599504","0.0235125","0.0342375","0.0385","-0.17773103713989258","0.29645442962646484","-0.3709712600708013","15.3277282","74.1245359","0.009321942","0.5070436137123635","0.0"
"14594a3f-3ec4-445b-aa08-fb7d7b251653","1","1768025111508","0.51795","6.7759504","6.5599504","0.0235125","0.0342375","0.0385","-0.17773103713989258","0.29645442962646484","-0.3709712600708013","15.3277282","74.1245359","0.009321942","0.5070436137123635","0.0"
"14594a3f-3ec4-445b-aa08-fb7d7b251653","1","1768025111519","-0.76395005","7.5810003","6.9040504","-0.0064625","0.012375","0.09845","0.1191396713256836","-0.9985496997833252","0.42278045654296825","15.3277282","74.1245359","0.009321942","1.0908891229889688","0.0"
"14594a3f-3ec4-445b-aa08-fb7d7b251653","1","1768025111530","-0.76395005","7.5810003","6.9040504","-0.0064625","0.012375","0.09845","0.1191396713256836","-0.9985496997833252","0.42278045654296825","15.3277282","74.1245359","0.009321942","1.0908891229889688","0.0"
"14594a3f-3ec4-445b-aa08-fb7d7b251653","1","1768025111540","-0.84105","7.4659505","6.2920504","0.0248875","0.0543125","0.0809875","-0.16321039199829102","-1.2147389650344849","-0.08706527709960987","15.3277282","74.1245359","0.009321942","1.2287427508252975","0.0"
"14594a3f-3ec4-445b-aa08-fb7d7b251653","1","1768025111551","-0.84105","7.4659505","6.2920504","0.0248875","0.0543125","0.0809875","-0.16321039199829102","-1.2147389650344849","-0.08706527709960987","15.3277282","74.1245359","0.009321942","1.2287427508252975","0.0"
"14594a3f-3ec4-445b-aa08-fb7d7b251653","1","1768025111562","-0.84105","7.4659505","6.2920504","0.0248875","0.0543125","0.0809875","-0.16321039199829102","-1.2147389650344849","-0.08706527709960987","15.3277282","74.1245359","0.009321942","1.2287427508252975","0.0"
"14594a3f-3ec4-445b-aa08-fb7d7b251653","1","1768025111573","-1.8940501","8.15505","5.736","0.0708125","0.0664125","0.0675125","-0.4576551914215088","-2.5205307006835938","0.009951057434081534","15.3277282","74.1245359","0.009321942","2.561761564015598","0.0"
"14594a3f-3ec4-445b-aa08-fb7d7b251653","1","1768025111584","-1.8940501","8.15505","5.736","0.0708125","0.0664125","0.0675125","-0.4576551914215088","-2.5205307006835938","0.009951057434081534","15.3277282","74.1245359","0.009321942","2.561761564015598","0.0"
"14594a3f-3ec4-445b-aa08-fb7d7b251653","1","1768025111594","-1.7410501","7.96395","6.46395","0.1694","0.241725","-0.109037496","0.08747529983520508","-2.060497760772705","0.3873094940185542","15.3277282","74.1245359","0.009321942","2.0984069182090255","0.0"
"14594a3f-3ec4-445b-aa08-fb7d7b251653","1","1768025111605","-1.7410501","7.96395","6.46395","0.1694","0.241725","-0.109037496","0.08747529983520508","-2.060497760772705","0.3873094940185542","15.3277282","74.1245359","0.009321942","2.0984069182090255","0.0"
"14594a3f-3ec4-445b-aa08-fb7d7b251653","1","1768025111617","-2.00895","7.6380005","6.9040504","0.2036375","0.3174875","-0.1857625","0.7035441398620605","-1.9654557704925537","0.47021717071533153","15.3277282","74.1245359","0.009321942","2.1398819897677197","0.0"
"14594a3f-3ec4-445b-aa08-fb7d7b251653","1","1768025111627","-2.00895","7.6380005","6.9040504","0.2036375","0.3174875","-0.1857625","0.7035441398620605","-1.9654557704925537","0.47021717071533153","15.3277282","74.1245359","0.009321942","2.1398819897677197","0.0"
"14594a3f-3ec4-445b-aa08-fb7d7b251653","1","1768025111638","-1.434","7.90605","7.287","0.2473625","0.488675","-0.34347498","0.5323910713195801","-1.296231985092163","0.946332397460937","15.3277282","74.1245359","0.009321942","1.6909176853061016","0.0"
"14594a3f-3ec4-445b-aa08-fb7d7b251653","1","1768025111649","-1.434","7.90605","7.287","0.2473625","0.488675","-0.34347498","0.5323910713195801","-1.296231985092163","0.946332397460937","15.3277282","74.1245359","0.009321942","1.6909176853061016","0.0"
"14594a3f-3ec4-445b-aa08-fb7d7b251653","1","1768025111659","-1.0510501","7.6000504","7.11495","0.253","0.5333625","-0.352","0.4216275215148926","-0.7546930313110352","0.6178793334960933","15.3277282","74.1245359","0.009321942","1.0625940942663885","0.0"
"14594a3f-3ec4-445b-aa08-fb7d7b251653","1","1768025111670","-1.0510501","7.6000504","7.11495","0.253","0.5333625","-0.352","0.4216275215148926","-0.7546930313110352","0.6178793334960933","15.3277282","74.1245359","0.009321942","1.0625940942663885","0.0"
"14594a3f-3ec4-445b-aa08-fb7d7b251653","1","1768025111681","-1.0510501","7.6000504","7.11495","0.253","0.5333625","-0.352","0.4216275215148926","-0.7546930313110352","0.6178793334960933","15.3277282","74.1245359","0.009321942","1.0625940942663885","0.0"
"14594a3f-3ec4-445b-aa08-fb7d7b251653","1","1768025111692","-0.80205005","7.9830003","6.86595","0.251075","0.561275","-0.3383875","-0.10019445419311523","-0.5567898750305176","0.7347998046874995","15.3277282","74.1245359","0.009321942","0.9273535714905847","0.0"
"14594a3f-3ec4-445b-aa08-fb7d7b251653","1","1768025111703","-0.80205005","7.9830003","6.86595","0.251075","0.561275","-0.3383875","-0.10019445419311523","-0.5567898750305176","0.7347998046874995","15.3277282","74.1245359","0.009321942","0.9273535714905847","0.0"
"14594a3f-3ec4-445b-aa08-fb7d7b251653","1","1768025111714","-0.726","8.059051","6.675","0.263175","0.5748875","-0.3141875","-0.31453990936279297","-0.40703845024108887","0.6669449234008784","15.3277282","74.1245359","0.009321942","0.8422773803248101","0.0"
"14594a3f-3ec4-445b-aa08-fb7d7b251653","1","1768025111724","-0.726","8.059051","6.675","0.263175","0.5748875","-0.3141875","-0.31453990936279297","-0.40703845024108887","0.6669449234008784","15.3277282","74.1245359","0.009321942","0.8422773803248101","0.0"
"14594a3f-3ec4-445b-aa08-fb7d7b251653","1","1768025111735","-0.573","8.136001","6.4830003","0.280775","0.5825875","-0.319825","-0.5603199005126953","-0.1977837085723877","0.5918764495849604","15.3277282","74.1245359","0.009321942","0.8386861855667482","0.0"
"14594a3f-3ec4-445b-aa08-fb7d7b251653","1","1768025111746","-0.573","8.136001","6.4830003","0.280775","0.5825875","-0.319825","-0.5603199005126953","-0.1977837085723877","0.5918764495849604","15.3277282","74.1245359","0.009321942","0.8386861855667482","0.0"
"14594a3f-3ec4-445b-aa08-fb7d7b251653","1","1768025111757","-0.20895001","8.09805","6.3300004","0.315975","0.526625","-0.2699125","-0.8053078651428223","0.23691773414611816","0.43628448486328075","15.3277282","74.1245359","0.009321942","0.9460417126883143","0.0"
"14594a3f-3ec4-445b-aa08-fb7d7b251653","1","1768025111768","-0.20895001","8.09805","6.3300004","0.315975","0.526625","-0.2699125","-0.8053078651428223","0.23691773414611816","0.43628448486328075","15.3277282","74.1245359","0.009321942","0.9460417126883143","0.0"
"14594a3f-3ec4-445b-aa08-fb7d7b251653","1","1768025111779","-0.01695","8.079","6.2530503","0.305525","0.44701248","-0.1991","-0.9137687683105469","0.5198483467102051","0.3519853973388667","15.3277282","74.1245359","0.009321942","1.1086520578869221","0.0"
"14594a3f-3ec4-445b-aa08-fb7d7b251653","1","1768025111789","-0.01695","8.079","6.2530503","0.305525","0.44701248","-0.1991","-0.9137687683105469","0.5198483467102051","0.3519853973388667","15.3277282","74.1245359","0.009321942","1.1086520578869221","0.0"
"14594a3f-3ec4-445b-aa08-fb7d7b251653","1","1768025111800","-0.01695","8.079","6.2530503","0.305525","0.44701248","-0.1991","-0.9137687683105469","0.5198483467102051","0.3519853973388667","15.3277282","74.1245359","0.009321942","1.1086520578869221","0.0"
"14594a3f-3ec4-445b-aa08-fb7d7b251653","1","1768025111811","-0.01695","8.079","6.2530503","0.305525","0.44701248","-0.1991","-0.9137687683105469","0.5198483467102051","0.3519853973388667","15.3277282","74.1245359","0.009321942","1.1086520578869221","0.0"
"14594a3f-3ec4-445b-aa08-fb7d7b251653","1","1768025111822","0.01995","8.00205","6.3490505","0.292325","0.364925","-0.13365","-0.7951631546020508","0.7318434715270996","0.3475479507446284","15.3277282","74.1245359","0.009321942","1.1351955282330495","0.0"
"14594a3f-3ec4-445b-aa08-fb7d7b251653","1","1768025111833","0.0010500001","8.15505","6.1380005","0.204325","0.1973125","0.0132","-0.9755103588104248","0.6804637908935547","0.32731861114501903","15.3277282","74.1245359","0.009321942","1.2336080836576806","0.0"
"14594a3f-3ec4-445b-aa08-fb7d7b251653","1","1768025111844","0.0010500001","8.15505","6.1380005","0.204325","0.1973125","0.0132","-0.9755103588104248","0.6804637908935547","0.32731861114501903","15.3277282","74.1245359","0.009321942","1.2336080836576806","0.0"
"14594a3f-3ec4-445b-aa08-fb7d7b251653","1","1768025111854","0.25005","8.11695","5.4870005","0.168575","0.0088","0.175725","-1.4143049716949463","0.6446568965911865","-0.1332889175415044","15.3277282","74.1245359","0.009321942","1.5600022444929393","0.0"
"14594a3f-3ec4-445b-aa08-fb7d7b251653","1","1768025111865","0.25005","8.11695","5.4870005","0.168575","0.0088","0.175725","-1.4143049716949463","0.6446568965911865","-0.1332889175415044","15.3277282","74.1245359","0.009321942","1.5600022444929393","0.0"
"14594a3f-3ec4-445b-aa08-fb7d7b251653","1","1768025111876","0.40305","8.385","4.96995","0.1623875","-0.1324125","0.2831125","-1.8681845664978027","0.45838749408721924","-0.2459607696533208","15.3277282","74.1245359","0.009321942","1.9392600056321994","0.0"
"14594a3f-3ec4-445b-aa08-fb7d7b251653","1","1768025111886","0.40305","8.385","4.96995","0.1623875","-0.1324125","0.2831125","-1.8681845664978027","0.45838749408721924","-0.2459607696533208","15.3277282","74.1245359","0.009321942","1.9392600056321994","0.0"
"14594a3f-3ec4-445b-aa08-fb7d7b251653","1","1768025111897","0.40305","8.385","4.96995","0.1623875","-0.1324125","0.2831125","-1.8681845664978027","0.45838749408721924","-0.2459607696533208","15.3277282","74.1245359","0.009321942","1.9392600056321994","0.0"
"14594a3f-3ec4-445b-aa08-fb7d7b251653","1","1768025111908","0.84300005","8.575951","4.60605","0.2105125","-0.226325","0.33467498","-2.283278226852417","0.5709946155548096","-0.32665210723877003","15.3277282","74.1245359","0.009321942","2.3761514916718656","0.0"
"14594a3f-3ec4-445b-aa08-fb7d7b251653","1","1768025111919","0.84300005","8.575951","4.60605","0.2105125","-0.226325","0.33467498","-2.283278226852417","0.5709946155548096","-0.32665210723877003","15.3277282","74.1245359","0.009321942","2.3761514916718656","0.0"
"14594a3f-3ec4-445b-aa08-fb7d7b251653","1","1768025111930","1.0540501","8.80605","4.53","0.5553625","-0.35805","0.345125","-2.3902673721313477","0.5851410627365112","-0.159990844726563","15.3277282","74.1245359","0.009321942","2.466042425420218","0.0"
"14594a3f-3ec4-445b-aa08-fb7d7b251653","1","1768025111941","1.0540501","8.80605","4.53","0.5553625","-0.35805","0.345125","-2.3902673721313477","0.5851410627365112","-0.159990844726563","15.3277282","74.1245359","0.009321942","2.466042425420218","0.0"
"14594a3f-3ec4-445b-aa08-fb7d7b251653","1","1768025111951","1.3800001","8.787001","4.683","0.66495","-0.39765","0.35021248","-2.2111406326293945","0.8903963565826416","-0.044533309936523935","15.3277282","74.1245359","0.009321942","2.3840997849868333","0.0"
"14594a3f-3ec4-445b-aa08-fb7d7b251653","1","1768025111962","1.3800001","8.787001","4.683","0.66495","-0.39765","0.35021248","-2.2111406326293945","0.8903963565826416","-0.044533309936523935","15.3277282","74.1245359","0.009321942","2.3840997849868333","0.0"
"14594a3f-3ec4-445b-aa08-fb7d7b251653","1","1768025111973","1.41795","8.787001","5.16195","0.6934125","-0.422125","0.36465","-1.6619594097137451","1.0862796306610107","0.28581947326660107","15.3277282","74.1245359","0.009321942","2.0059424933989205","0.0"
"14594a3f-3ec4-445b-aa08-fb7d7b251653","1","1768025111984","1.41795","8.787001","5.16195","0.6934125","-0.422125","0.36465","-1.6619594097137451","1.0862796306610107","0.28581947326660107","15.3277282","74.1245359","0.009321942","2.0059424933989205","0.0"
"14594a3f-3ec4-445b-aa08-fb7d7b251653","1","1768025111994","1.3410001","8.691","5.35305","0.6661875","-0.50875","0.4686","-1.2021796703338623","1.0826884508132935","0.35707611083984325","15.3277282","74.1245359","0.009321942","1.656790146705681","0.0"
"14594a3f-3ec4-445b-aa08-fb7d7b251653","1","1768025112005","1.3410001","8.691","5.35305","0.6661875","-0.50875","0.4686","-1.2021796703338623","1.0826884508132935","0.35707611083984325","15.3277282","74.1245359","0.009321942","1.656790146705681","0.0"
"14594a3f-3ec4-445b-aa08-fb7d7b251653","1","1768025112016","1.3410001","8.691","5.35305","0.6661875","-0.50875","0.4686","-1.2021796703338623","1.0826884508132935","0.35707611083984325","15.3277282","74.1245359","0.009321942","1.656790146705681","0.0"
"14594a3f-3ec4-445b-aa08-fb7d7b251653","1","1768025112027","1.3219501","8.46195","5.0659504","0.6348375","-0.51713747","0.4882625","-1.0384812355041504","0.9279766082763672","0.042736473083495596","15.3277282","74.1245359","0.009321942","1.3933449925032757","0.0"
"14594a3f-3ec4-445b-aa08-fb7d7b251653","1","1768025112038","1.3219501","8.46195","5.0659504","0.6348375","-0.51713747","0.4882625","-1.0384812355041504","0.9279766082763672","0.042736473083495596","15.3277282","74.1245359","0.009321942","1.3933449925032757","0.0"
"14594a3f-3ec4-445b-aa08-fb7d7b251653","1","1768025112049","1.3410001","8.500051","4.72095","0.6109125","-0.5025625","0.4796","-1.0540056228637695","0.6980124711990356","-0.07663589477539112","15.3277282","74.1245359","0.009321942","1.2665000289561197","0.0"
"14594a3f-3ec4-445b-aa08-fb7d7b251653","2","1768025112059","1.3410001","8.500051","4.72095","0.6109125","-0.5025625","0.4796","-1.0540056228637695","0.6980124711990356","-0.07663589477539112","15.3277257","74.1245236","0.014808138","1.2665000289561197","0.0"
"14594a3f-3ec4-445b-aa08-fb7d7b251653","2","1768025112070","1.3410001","8.500051","4.72095","0.6109125","-0.5025625","0.4796","-1.0540056228637695","0.6980124711990356","-0.07663589477539112","15.3277257","74.1245236","0.014808138","1.2665000289561197","0.0"
"14594a3f-3ec4-445b-aa08-fb7d7b251653","2","1768025112082","1.3219501","8.67195","4.26195","0.6323625","-0.4789125","0.455675","-1.2186594009399414","0.3724168539047241","-0.14094215393066456","15.3277257","74.1245236","0.014808138","1.2820646392932786","0.0"
"14594a3f-3ec4-445b-aa08-fb7d7b251653","2","1768025112092","1.15005","8.863951","3.5719502","0.6466625","-0.4706625","0.4477","-1.5037939548492432","-0.15406835079193115","-0.3038993453979497","15.3277257","74.1245236","0.014808138","1.5419105445810322","0.0"
"14594a3f-3ec4-445b-aa08-fb7d7b251653","2","1768025112103","1.15005","8.863951","3.5719502","0.6466625","-0.4706625","0.4477","-1.5037939548492432","-0.15406835079193115","-0.3038993453979497","15.3277257","74.1245236","0.014808138","1.5419105445810322","0.0"
"14594a3f-3ec4-445b-aa08-fb7d7b251653","2","1768025112113","1.2070501","8.787001","3.3430502","0.7170625","-0.4151125","0.394625","-1.450608491897583","-0.21442723274230957","-0.44548755645752003","15.3277257","74.1245236","0.014808138","1.5325479430886972","0.0"
"14594a3f-3ec4-445b-aa08-fb7d7b251653","2","1768025112124","1.2070501","8.787001","3.3430502","0.7170625","-0.4151125","0.394625","-1.450608491897583","-0.21442723274230957","-0.44548755645752003","15.3277257","74.1245236","0.014808138","1.5325479430886972","0.0"
"14594a3f-3ec4-445b-aa08-fb7d7b251653","2","1768025112135","1.2070501","8.787001","3.3430502","0.7170625","-0.4151125","0.394625","-1.450608491897583","-0.21442723274230957","-0.44548755645752003","15.3277257","74.1245236","0.014808138","1.5325479430886972","0.0"
"14594a3f-3ec4-445b-aa08-fb7d7b251653","2","1768025112145","1.15005","8.74905","3.3430502","0.7082625","-0.3774375","0.3667125","-1.185549020767212","-0.2738933563232422","-0.4524388885498052","15.3277257","74.1245236","0.014808138","1.298169865292015","0.0"
"14594a3f-3ec4-445b-aa08-fb7d7b251653","2","1768025112156","1.15005","8.74905","3.3430502","0.7082625","-0.3774375","0.3667125","-1.185549020767212","-0.2738933563232422","-0.4524388885498052","15.3277257","74.1245236","0.014808138","1.298169865292015","0.0"
"14594a3f-3ec4-445b-aa08-fb7d7b251653","2","1768025112167","1.0540501","8.691","3.5530503","0.68035","-0.331375","0.3273875","-0.733318567276001","-0.27783358097076416","-0.39438873291015675","15.3277257","74.1245236","0.014808138","0.877775650421703","0.0"
"14594a3f-3ec4-445b-aa08-fb7d7b251653","2","1768025112177","1.0540501","8.691","3.5530503","0.68035","-0.331375","0.3273875","-0.733318567276001","-0.27783358097076416","-0.39438873291015675","15.3277257","74.1245236","0.014808138","0.877775650421703","0.0"
"14594a3f-3ec4-445b-aa08-fb7d7b251653","2","1768025112188","0.882","8.787001","3.8209503","0.6177875","-0.2578125","0.264825","-0.27377867698669434","-0.3628215789794922","-0.19842487335205128","15.3277257","74.1245236","0.014808138","0.4959502923787163","0.0"
"14594a3f-3ec4-445b-aa08-fb7d7b251653","2","1768025112198","0.882","8.787001","3.8209503","0.6177875","-0.2578125","0.264825","-0.27377867698669434","-0.3628215789794922","-0.19842487335205128","15.3277257","74.1245236","0.014808138","0.4959502923787163","0.0"
"14594a3f-3ec4-445b-aa08-fb7d7b251653","2","1768025112209","0.882","8.787001","3.8209503","0.6177875","-0.2578125","0.264825","-0.27377867698669434","-0.3628215789794922","-0.19842487335205128","15.3277257","74.1245236","0.014808138","0.4959502923787163","0.0"
"14594a3f-3ec4-445b-aa08-fb7d7b251653","2","1768025112220","0.76695","9.016951","3.80205","0.5949625","-0.23045","0.2391125","-0.14053630828857422","-0.5205001831054688","-0.009055671691895029","15.3277257","74.1245236","0.014808138","0.5392150774505466","0.0"
"14594a3f-3ec4-445b-aa08-fb7d7b251653","2","1768025112230","0.76695","9.016951","3.80205","0.5949625","-0.23045","0.2391125","-0.14053630828857422","-0.5205001831054688","-0.009055671691895029","15.3277257","74.1245236","0.014808138","0.5392150774505466","0.0"
"14594a3f-3ec4-445b-aa08-fb7d7b251653","2","1768025112241","0.91995007","9.26595","3.76395","0.5677375","-0.1384625","0.1390125","-0.15578413009643555","-0.45630156993865967","0.22189849853515575","15.3277257","74.1245236","0.014808138","0.5307718545387888","0.0"
"14594a3f-3ec4-445b-aa08-fb7d7b251653","2","1768025112252","0.91995007","9.26595","3.76395","0.5677375","-0.1384625","0.1390125","-0.15578413009643555","-0.45630156993865967","0.22189849853515575","15.3277257","74.1245236","0.014808138","0.5307718545387888","0.0"
"14594a3f-3ec4-445b-aa08-fb7d7b251653","2","1768025112263","0.91995007","9.571951","3.6679502","0.581075","-0.080025","0.0644875","-0.18388748168945312","-0.5466468334197998","0.46568912506103466","15.3277257","74.1245236","0.014808138","0.7412851864229416","0.0"
"14594a3f-3ec4-445b-aa08-fb7d7b251653","2","1768025112274","0.91995007","9.571951","3.6679502","0.581075","-0.080025","0.0644875","-0.18388748168945312","-0.5466468334197998","0.46568912506103466","15.3277257","74.1245236","0.014808138","0.7412851864229416","0.0"
"14594a3f-3ec4-445b-aa08-fb7d7b251653","2","1768025112284","1.0350001","9.8209505","3.4770002","0.5935875","-0.0350625","5.5E-4","-0.322751522064209","-0.5339292287826538","0.6409601593017573","15.3277257","74.1245236","0.014808138","0.8944712919682427","0.0"
"14594a3f-3ec4-445b-aa08-fb7d7b251653","2","1768025112295","1.0350001","9.8209505","3.4770002","0.5935875","-0.0350625","5.5E-4","-0.322751522064209","-0.5339292287826538","0.6409601593017573","15.3277257","74.1245236","0.014808138","0.8944712919682427","0.0"
"14594a3f-3ec4-445b-aa08-fb7d7b251653","2","1768025112306","1.0350001","9.8209505","3.4770002","0.5935875","-0.0350625","5.5E-4","-0.322751522064209","-0.5339292287826538","0.6409601593017573","15.3277257","74.1245236","0.014808138","0.8944712919682427","0.0"
"14594a3f-3ec4-445b-aa08-fb7d7b251653","2","1768025112317","1.284","9.99405","3.3619502","0.6260375","-0.0075625","-0.0515625","-0.4406893253326416","-0.33660733699798584","0.7977756881713862","15.3277257","74.1245236","0.014808138","0.9715748192601243","0.0"
"14594a3f-3ec4-445b-aa08-fb7d7b251653","2","1768025112327","1.284","9.99405","3.3619502","0.6260375","-0.0075625","-0.0515625","-0.4406893253326416","-0.33660733699798584","0.7977756881713862","15.3277257","74.1245236","0.014808138","0.9715748192601243","0.0"
"14594a3f-3ec4-445b-aa08-fb7d7b251653","2","1768025112338","1.4749501","10.20405","3.4000502","0.6323625","-0.0015125","-0.05775","-0.4080524444580078","-0.12563776969909668","1.0378651046752925","15.3277257","74.1245236","0.014808138","1.122254704648537","0.0"
"14594a3f-3ec4-445b-aa08-fb7d7b251653","2","1768025112349","1.4749501","10.20405","3.4000502","0.6323625","-0.0015125","-0.05775","-0.4080524444580078","-0.12563776969909668","1.0378651046752925","15.3277257","74.1245236","0.014808138","1.122254704648537","0.0"
"14594a3f-3ec4-445b-aa08-fb7d7b251653","2","1768025112359","1.59","10.242001","3.4770002","0.54202497","0.0210375","-0.0460625","-0.26079416275024414","0.08266699314117432","1.1189226531982417","15.3277257","74.1245236","0.014808138","1.151883384253717","0.0"
"14594a3f-3ec4-445b-aa08-fb7d7b251653","2","1768025112370","1.59","10.242001","3.4770002","0.54202497","0.0210375","-0.0460625","-0.26079416275024414","0.08266699314117432","1.1189226531982417","15.3277257","74.1245236","0.014808138","1.151883384253717","0.0"
"14594a3f-3ec4-445b-aa08-fb7d7b251653","2","1768025112380","1.6290001","10.281","3.8790002","0.4851","0.0226875","-0.0350625","0.17386150360107422","0.3388291597366333","1.2919926071166987","15.3277257","74.1245236","0.014808138","1.3469513423900892","0.0"
"14594a3f-3ec4-445b-aa08-fb7d7b251653","2","1768025112391","1.6290001","10.281","3.8790002","0.4851","0.0226875","-0.0350625","0.17386150360107422","0.3388291597366333","1.2919926071166987","15.3277257","74.1245236","0.014808138","1.3469513423900892","0.0"
"14594a3f-3ec4-445b-aa08-fb7d7b251653","2","1768025112402","1.6290001","10.281","3.8790002","0.4851","0.0226875","-0.0350625","0.17386150360107422","0.3388291597366333","1.2919926071166987","15.3277257","74.1245236","0.014808138","1.3469513423900892","0.0"
"14594a3f-3ec4-445b-aa08-fb7d7b251653","2","1768025112413","1.3410001","10.185","4.932","0.426525","0.0067375","-0.00605","1.3340661525726318","0.5957887172698975","1.4914364242553706","15.3277257","74.1245236","0.014808138","2.087840823114085","0.0"
"14594a3f-3ec4-445b-aa08-fb7d7b251653","2","1768025112423","1.3410001","10.185","4.932","0.426525","0.0067375","-0.00605","1.3340661525726318","0.5957887172698975","1.4914364242553706","15.3277257","74.1245236","0.014808138","2.087840823114085","0.0"
"14594a3f-3ec4-445b-aa08-fb7d7b251653","2","1768025112434","1.3600501","10.242001","5.736","0.3059375","-0.0210375","0.02255","2.092146873474121","0.9700504541397095","1.7801660919189448","15.3277257","74.1245236","0.014808138","2.9132572386561","0.0"
"14594a3f-3ec4-445b-aa08-fb7d7b251653","2","1768025112445","1.3600501","10.242001","5.736","0.3059375","-0.0210375","0.02255","2.092146873474121","0.9700504541397095","1.7801660919189448","15.3277257","74.1245236","0.014808138","2.9132572386561","0.0"
"14594a3f-3ec4-445b-aa08-fb7d7b251653","2","1768025112455","1.3600501","9.91695","5.29605","0.2223375","-0.0122375","0.0319","1.8419923782348633","0.8979792594909668","1.3275255584716792","15.3277257","74.1245236","0.014808138","2.441644278011606","0.0"
"14594a3f-3ec4-445b-aa08-fb7d7b251653","2","1768025112466","1.3600501","9.91695","5.29605","0.2223375","-0.0122375","0.0319","1.8419923782348633","0.8979792594909668","1.3275255584716792","15.3277257","74.1245236","0.014808138","2.441644278011606","0.0"
"14594a3f-3ec4-445b-aa08-fb7d7b251653","2","1768025112477","0.633","9.285001","5.10405","-0.0682","0.0165","0.0697125","2.161370038986206","0.343453049659729","0.5762314224243159","15.3277257","74.1245236","0.014808138","2.2630782343827516","0.0"
"14594a3f-3ec4-445b-aa08-fb7d7b251653","2","1768025112488","0.633","9.285001","5.10405","-0.0682","0.0165","0.0697125","2.161370038986206","0.343453049659729","0.5762314224243159","15.3277257","74.1245236","0.014808138","2.2630782343827516","0.0"
"14594a3f-3ec4-445b-aa08-fb7d7b251653","2","1768025112498","0.25005","8.76795","5.4870005","-0.1436875","0.02585","0.0680625","2.7142622470855713","0.2614133358001709","0.17053550720214794","15.3277257","74.1245236","0.014808138","2.7321491242801668","0.0"
"14594a3f-3ec4-445b-aa08-fb7d7b251653","2","1768025112509","0.25005","8.76795","5.4870005","-0.1436875","0.02585","0.0680625","2.7142622470855713","0.2614133358001709","0.17053550720214794","15.3277257","74.1245236","0.014808138","2.7321491242801668","0.0"
"14594a3f-3ec4-445b-aa08-fb7d7b251653","2","1768025112520","0.25005","8.76795","5.4870005","-0.1436875","0.02585","0.0680625","2.7142622470855713","0.2614133358001709","0.17053550720214794","15.3277257","74.1245236","0.014808138","2.7321491242801668","0.0"
"14594a3f-3ec4-445b-aa08-fb7d7b251653","2","1768025112531","0.135","8.15505","5.37195","-0.235125","0.0526625","0.055825","2.669792890548706","0.23038125038146973","-0.41851097106933643","15.3277257","74.1245236","0.014808138","2.7121985605514105","0.0"
"14594a3f-3ec4-445b-aa08-fb7d7b251653","2","1768025112541","0.135","8.15505","5.37195","-0.235125","0.0526625","0.055825","2.669792890548706","0.23038125038146973","-0.41851097106933643","15.3277257","74.1245236","0.014808138","2.7121985605514105","0.0"
"14594a3f-3ec4-445b-aa08-fb7d7b251653","2","1768025112553","0.25005","7.6000504","4.26195","-0.3499375","0.0895125","0.04235","1.7177537679672241","-0.0031273365020751953","-1.2638412094116216","15.3277257","74.1245236","0.014808138","2.132599913299779","0.0"
"14594a3f-3ec4-445b-aa08-fb7d7b251653","2","1768025112564","0.25005","7.6000504","4.26195","-0.3499375","0.0895125","0.04235","1.7177537679672241","-0.0031273365020751953","-1.2638412094116216","15.3277257","74.1245236","0.014808138","2.132599913299779","0.0"
"14594a3f-3ec4-445b-aa08-fb7d7b251653","2","1768025112574","0.57495004","7.56195","3.59205","-0.382525","0.108075","0.02805","0.9341719150543213","-0.007666945457458496","-1.4707093811035161","15.3277257","74.1245236","0.014808138","1.742332354229466","0.0"
"14594a3f-3ec4-445b-aa08-fb7d7b251653","2","1768025112585","0.57495004","7.56195","3.59205","-0.382525","0.108075","0.02805","0.9341719150543213","-0.007666945457458496","-1.4707093811035161","15.3277257","74.1245236","0.014808138","1.742332354229466","0.0"
"14594a3f-3ec4-445b-aa08-fb7d7b251653","2","1768025112596","0.61395","7.7530503","4.05105","-0.4852375","0.18865","-0.062975","1.177900791168213","0.12532269954681396","-1.1212392425537114","15.3277257","74.1245236","0.014808138","1.6310528783270097","0.0"
"14594a3f-3ec4-445b-aa08-fb7d7b251653","2","1768025112606","0.61395","7.7530503","4.05105","-0.4852375","0.18865","-0.062975","1.177900791168213","0.12532269954681396","-1.1212392425537114","15.3277257","74.1245236","0.014808138","1.6310528783270097","0.0"
"14594a3f-3ec4-445b-aa08-fb7d7b251653","2","1768025112617","0.61395","7.7530503","4.05105","-0.4852375","0.18865","-0.062975","1.177900791168213","0.12532269954681396","-1.1212392425537114","15.3277257","74.1245236","0.014808138","1.6310528783270097","0.0"
"14594a3f-3ec4-445b-aa08-fb7d7b251653","2","1768025112628","0.32595003","7.8870006","4.6260004","-0.5033875","0.21285","-0.1013375","1.636286973953247","0.04247713088989258","-0.808240470886231","15.3277257","74.1245236","0.014808138","1.8255114424610184","0.0"
"14594a3f-3ec4-445b-aa08-fb7d7b251653","2","1768025112638","0.32595003","7.8870006","4.6260004","-0.5033875","0.21285","-0.1013375","1.636286973953247","0.04247713088989258","-0.808240470886231","15.3277257","74.1245236","0.014808138","1.8255114424610184","0.0"
"14594a3f-3ec4-445b-aa08-fb7d7b251653","2","1768025112649","0.28800002","7.8870006","4.5870004","-0.51865","0.2404875","-0.1436875","1.4747748374938965","-0.022885441780090332","-0.8015142059326177","15.3277257","74.1245236","0.014808138","1.6786630355918406","0.0"
"14594a3f-3ec4-445b-aa08-fb7d7b251653","2","1768025112660","0.28800002","7.8870006","4.5870004","-0.51865","0.2404875","-0.1436875","1.4747748374938965","-0.022885441780090332","-0.8015142059326177","15.3277257","74.1245236","0.014808138","1.6786630355918406","0.0"
"14594a3f-3ec4-445b-aa08-fb7d7b251653","2","1768025112671","0.36495003","7.9830003","4.47195","-0.5207125","0.2743125","-0.187","1.1690218448638916","-0.0362018346786499","-0.7274947738647466","15.3277257","74.1245236","0.014808138","1.3773784130018867","0.0"
"14594a3f-3ec4-445b-aa08-fb7d7b251653","2","1768025112681","0.36495003","7.9830003","4.47195","-0.5207125","0.2743125","-0.187","1.1690218448638916","-0.0362018346786499","-0.7274947738647466","15.3277257","74.1245236","0.014808138","1.3773784130018867","0.0"
"14594a3f-3ec4-445b-aa08-fb7d7b251653","2","1768025112692","0.15405001","8.17395","4.70205","-0.508475","0.2811875","-0.1956625","1.2381987571716309","-0.17592287063598633","-0.4621444320678716","15.3277257","74.1245236","0.014808138","1.3332901015028622","0.0"
"14594a3f-3ec4-445b-aa08-fb7d7b251653","2","1768025112703","0.15405001","8.17395","4.70205","-0.508475","0.2811875","-0.1956625","1.2381987571716309","-0.17592287063598633","-0.4621444320678716","15.3277257","74.1245236","0.014808138","1.3332901015028622","0.0"
"14594a3f-3ec4-445b-aa08-fb7d7b251653","2","1768025112714","0.17295001","8.269951","4.8169503","-0.43559998","0.3067625","-0.24447499","1.1169838905334473","-0.13016223907470703","-0.3041902160644536","15.3277257","74.1245236","0.014808138","1.1649578995575403","0.0"
"14594a3f-3ec4-445b-aa08-fb7d7b251653","2","1768025112725","0.17295001","8.269951","4.8169503","-0.43559998","0.3067625","-0.24447499","1.1169838905334473","-0.13016223907470703","-0.3041902160644536","15.3277257","74.1245236","0.014808138","1.1649578995575403","0.0"
"14594a3f-3ec4-445b-aa08-fb7d7b251653","2","1768025112735","0.17295001","8.269951","4.8169503","-0.43559998","0.3067625","-0.24447499","1.1169838905334473","-0.13016223907470703","-0.3041902160644536","15.3277257","74.1245236","0.014808138","1.1649578995575403","0.0"
"14594a3f-3ec4-445b-aa08-fb7d7b251653","2","1768025112746","0.42195","8.2890005","4.5870004","-0.35255","0.2745875","-0.2514875","0.6532750129699707","0.01252138614654541","-0.3495956039428716","15.3277257","74.1245236","0.014808138","0.7410412363547169","0.0"
"14594a3f-3ec4-445b-aa08-fb7d7b251653","2","1768025112757","0.42195","8.2890005","4.5870004","-0.35255","0.2745875","-0.2514875","0.6532750129699707","0.01252138614654541","-0.3495956039428716","15.3277257","74.1245236","0.014808138","0.7410412363547169","0.0"
"14594a3f-3ec4-445b-aa08-fb7d7b251653","2","1768025112768","0.74805003","8.17395","4.3000503","-0.2322375","0.2047375","-0.2278375","0.1862809658050537","0.23744738101959229","-0.5486617660522466","15.3277257","74.1245236","0.014808138","0.6261881430543836","0.0"
"14594a3f-3ec4-445b-aa08-fb7d7b251653","2","1768025112778","0.74805003","8.17395","4.3000503","-0.2322375","0.2047375","-0.2278375","0.1862809658050537","0.23744738101959229","-0.5486617660522466","15.3277257","74.1245236","0.014808138","0.6261881430543836","0.0"
"14594a3f-3ec4-445b-aa08-fb7d7b251653","2","1768025112789","1.07295","8.02095","3.9550502","-0.046475","0.088825","-0.1794375","-0.26681017875671387","0.44552087783813477","-0.8178029632568364","15.3277257","74.1245236","0.014808138","0.9687508507296984","0.0"
"14594a3f-3ec4-445b-aa08-fb7d7b251653","2","1768025112800","1.07295","8.02095","3.9550502","-0.046475","0.088825","-0.1794375","-0.26681017875671387","0.44552087783813477","-0.8178029632568364","15.3277257","74.1245236","0.014808138","0.9687508507296984","0.0"
"14594a3f-3ec4-445b-aa08-fb7d7b251653","2","1768025112810","1.07295","8.02095","3.9550502","-0.046475","0.088825","-0.1794375","-0.26681017875671387","0.44552087783813477","-0.8178029632568364","15.3277257","74.1245236","0.014808138","0.9687508507296984","0.0"
"14594a3f-3ec4-445b-aa08-fb7d7b251653","2","1768025112821","1.07295","8.02095","3.9550502","-0.046475","0.088825","-0.1794375","-0.26681017875671387","0.44552087783813477","-0.8178029632568364","15.3277257","74.1245236","0.014808138","0.9687508507296984","0.0"
"14594a3f-3ec4-445b-aa08-fb7d7b251653","2","1768025112832","1.131","7.9450502","3.726","-0.0160875","0.060225","-0.16225","-0.4729158878326416","0.44980931282043457","-0.986162719726563","15.3277257","74.1245236","0.014808138","1.1825797075220845","0.0"
"14594a3f-3ec4-445b-aa08-fb7d7b251653","2","1768025112842","0.90105003","8.17395","3.6109502","-0.0067375","-0.078099996","-0.014025","-0.5488693714141846","0.1707836389541626","-0.8470817184448247","15.3277257","74.1245236","0.014808138","1.0237050727306498","0.0"
"14594a3f-3ec4-445b-aa08-fb7d7b251653","2","1768025112853","0.90105003","8.17395","3.6109502","-0.0067375","-0.078099996","-0.014025","-0.5488693714141846","0.1707836389541626","-0.8470817184448247","15.3277257","74.1245236","0.014808138","1.0237050727306498","0.0"
"14594a3f-3ec4-445b-aa08-fb7d7b251653","2","1768025112864","0.70905006","8.347051","3.76395","0.0207625","-0.1183875","0.00605","-0.3880617618560791","0.017178654670715332","-0.634356079101563","15.3277257","74.1245236","0.014808138","0.743837799714594","0.0"
"14594a3f-3ec4-445b-aa08-fb7d7b251653","2","1768025112874","0.70905006","8.347051","3.76395","0.0207625","-0.1183875","0.00605","-0.3880617618560791","0.017178654670715332","-0.634356079101563","15.3277257","74.1245236","0.014808138","0.743837799714594","0.0"
"14594a3f-3ec4-445b-aa08-fb7d7b251653","2","1768025112885","0.441","8.787001","3.63","0.06325","-0.14905","0.00935","-0.50193190574646","-0.3876436948776245","-0.31365543365478565","15.3277257","74.1245236","0.014808138","0.7075189066348839","0.0"
"14594a3f-3ec4-445b-aa08-fb7d7b251653","2","1768025112896","0.441","8.787001","3.63","0.06325","-0.14905","0.00935","-0.50193190574646","-0.3876436948776245","-0.31365543365478565","15.3277257","74.1245236","0.014808138","0.7075189066348839","0.0"
"14594a3f-3ec4-445b-aa08-fb7d7b251653","2","1768025112906","0.441","8.787001","3.63","0.06325","-0.14905","0.00935","-0.50193190574646","-0.3876436948776245","-0.31365543365478565","15.3277257","74.1245236","0.014808138","0.7075189066348839","0.0"
"14594a3f-3ec4-445b-aa08-fb7d7b251653","2","1768025112917","0.11595","9.32295","3.3430502","0.199925","-0.1892","-0.0154","-0.7070643901824951","-0.8968424797058105","0.02882999420165966","15.3277257","74.1245236","0.014808138","1.142408707002305","0.0"
"14594a3f-3ec4-445b-aa08-fb7d7b251653","2","1768025112928","0.11595","9.32295","3.3430502","0.199925","-0.1892","-0.0154","-0.7070643901824951","-0.8968424797058105","0.02882999420165966","15.3277257","74.1245236","0.014808138","1.142408707002305","0.0"
"14594a3f-3ec4-445b-aa08-fb7d7b251653","2","1768025112938","0.135","9.571951","3.381","0.2591875","-0.2044625","-0.031075","-0.6967639923095703","-0.888540506362915","0.2794346237182612","15.3277257","74.1245236","0.014808138","1.1632145121856943","0.0"
"14594a3f-3ec4-445b-aa08-fb7d7b251653","2","1768025112949","0.135","9.571951","3.381","0.2591875","-0.2044625","-0.031075","-0.6967639923095703","-0.888540506362915","0.2794346237182612","15.3277257","74.1245236","0.014808138","1.1632145121856943","0.0"
"14594a3f-3ec4-445b-aa08-fb7d7b251653","2","1768025112960","0.48000002","9.55305","3.8790002","0.4442625","-0.268125","-0.0908875","-0.3710038661956787","-0.34641849994659424","0.49922698974609325","15.3277257","74.1245236","0.014808138","0.7119531116080157","0.0"
"14594a3f-3ec4-445b-aa08-fb7d7b251653","2","1768025112971","0.48000002","9.55305","3.8790002","0.4442625","-0.268125","-0.0908875","-0.3710038661956787","-0.34641849994659424","0.49922698974609325","15.3277257","74.1245236","0.014808138","0.7119531116080157","0.0"
"14594a3f-3ec4-445b-aa08-fb7d7b251653","2","1768025112981","0.80505","9.438001","4.6639504","0.48235","-0.29205","-0.111237496","0.26349639892578125","0.32524406909942627","0.73993724822998","15.3277257","74.1245236","0.014808138","0.850130100660694","0.0"
"14594a3f-3ec4-445b-aa08-fb7d7b251653","2","1768025112992","0.80505","9.438001","4.6639504","0.48235","-0.29205","-0.111237496","0.26349639892578125","0.32524406909942627","0.73993724822998","15.3277257","74.1245236","0.014808138","0.850130100660694","0.0"
"14594a3f-3ec4-445b-aa08-fb7d7b251653","2","1768025113003","1.0350001","9.361951","4.9510503","0.4483875","-0.295625","-0.1131625","0.5324006080627441","0.703567385673523","0.794329109191894","15.3277257","74.1245236","0.014808138","1.1871883622065385","0.0"
"14594a3f-3ec4-445b-aa08-fb7d7b251653","2","1768025113014","1.0350001","9.361951","4.9510503","0.4483875","-0.295625","-0.1131625","0.5324006080627441","0.703567385673523","0.794329109191894","15.3277257","74.1245236","0.014808138","1.1871883622065385","0.0"
"14594a3f-3ec4-445b-aa08-fb7d7b251653","2","1768025113024","1.0350001","9.361951","4.9510503","0.4483875","-0.295625","-0.1131625","0.5324006080627441","0.703567385673523","0.794329109191894","15.3277257","74.1245236","0.014808138","1.1871883622065385","0.0"
"14594a3f-3ec4-445b-aa08-fb7d7b251653","2","1768025113035","1.3600501","9.228001","4.22295","0.359975","-0.2998875","-0.0873125","-0.06618595123291016","0.7766939401626587","0.3993791961669917","15.3277257","74.1245236","0.014808138","0.8758640300623112","0.0"
"14594a3f-3ec4-445b-aa08-fb7d7b251653","2","1768025113046","1.3600501","9.228001","4.22295","0.359975","-0.2998875","-0.0873125","-0.06618595123291016","0.7766939401626587","0.3993791961669917","15.3277257","74.1245236","0.014808138","0.8758640300623112","0.0"
"14594a3f-3ec4-445b-aa08-fb7d7b251653","2","1768025113057","1.59","9.11295","4.10895","0.34141248","-0.3084125","-0.078925","-0.12339425086975098","0.9726674556732178","0.26453060150146435","15.3277257","74.1245236","0.014808138","1.0155218164097926","0.0"
"14594a3f-3ec4-445b-aa08-fb7d7b251653","2","1768025113067","1.59","9.11295","4.10895","0.34141248","-0.3084125","-0.078925","-0.12339425086975098","0.9726674556732178","0.26453060150146435","15.3277257","74.1245236","0.014808138","1.0155218164097926","0.0"
"14594a3f-3ec4-445b-aa08-fb7d7b251653","2","1768025113078","1.11195","9.055051","4.9890003","0.2057","-0.3320625","-0.047849998","0.9240090847015381","0.8905702829360962","0.5086035156249995","15.3277257","74.1245236","0.014808138","1.3804295540033769","0.0"
"14594a3f-3ec4-445b-aa08-fb7d7b251653","2","1768025113089","1.11195","9.055051","4.9890003","0.2057","-0.3320625","-0.047849998","0.9240090847015381","0.8905702829360962","0.5086035156249995","15.3277257","74.1245236","0.014808138","1.3804295540033769","0.0"
"14594a3f-3ec4-445b-aa08-fb7d7b251653","2","1768025113100","0.69000006","8.691","5.181","0.1023","-0.3284875","-0.0488125","1.4033751487731934","0.636890172958374","0.2138351821899409","15.3277257","74.1245236","0.014808138","1.555897292801596","0.0"
"14594a3f-3ec4-445b-aa08-fb7d7b251653","2","1768025113110","0.69000006","8.691","5.181","0.1023","-0.3284875","-0.0488125","1.4033751487731934","0.636890172958374","0.2138351821899409","15.3277257","74.1245236","0.014808138","1.555897292801596","0.0"
"14594a3f-3ec4-445b-aa08-fb7d7b251653","2","1768025113121","0.69000006","8.691","5.181","0.1023","-0.3284875","-0.0488125","1.4033751487731934","0.636890172958374","0.2138351821899409","15.3277257","74.1245236","0.014808138","1.555897292801596","0.0"
"14594a3f-3ec4-445b-aa08-fb7d7b251653","2","1768025113132","0.633","8.404051","4.24305","-0.014162499","-0.3158375","-0.0603625","0.7061798572540283","0.28608012199401855","-0.4051232910156255","15.3277257","74.1245236","0.014808138","0.8629349384019421","0.0"
"14594a3f-3ec4-445b-aa08-fb7d7b251653","2","1768025113143","0.633","8.404051","4.24305","-0.014162499","-0.3158375","-0.0603625","0.7061798572540283","0.28608012199401855","-0.4051232910156255","15.3277257","74.1245236","0.014808138","0.8629349384019421","0.0"
"14594a3f-3ec4-445b-aa08-fb7d7b251653","2","1768025113153","0.80505","8.347051","2.9980502","-0.1051875","-0.315425","-0.0716375","-0.40731072425842285","0.006663799285888672","-0.9137235260009771","15.3277257","74.1245236","0.014808138","1.0004184695838547","0.0"
"14594a3f-3ec4-445b-aa08-fb7d7b251653","2","1768025113164","0.80505","8.347051","2.9980502","-0.1051875","-0.315425","-0.0716375","-0.40731072425842285","0.006663799285888672","-0.9137235260009771","15.3277257","74.1245236","0.014808138","1.0004184695838547","0.0"
"14594a3f-3ec4-445b-aa08-fb7d7b251653","2","1768025113175","0.90105003","8.500051","2.76795","-0.0999625","-0.3287625","-0.0713625","-0.6930842399597168","-0.027072906494140625","-0.8521438217163091","15.3277257","74.1245236","0.014808138","1.0987482872959828","0.0"
"14594a3f-3ec4-445b-aa08-fb7d7b251653","2","1768025113185","0.90105003","8.500051","2.76795","-0.0999625","-0.3287625","-0.0713625","-0.6930842399597168","-0.027072906494140625","-0.8521438217163091","15.3277257","74.1245236","0.014808138","1.0987482872959828","0.0"
"14594a3f-3ec4-445b-aa08-fb7d7b251653","2","1768025113196","0.882","8.61495","3.3619502","-0.0988625","-0.3898125","-0.0103124995","-0.21094202995300293","0.11227273941040039","-0.5234017944335942","15.3277257","74.1245236","0.014808138","0.5753704427859635","0.0"
"14594a3f-3ec4-445b-aa08-fb7d7b251653","2","1768025113207","0.882","8.61495","3.3619502","-0.0988625","-0.3898125","-0.0103124995","-0.21094202995300293","0.11227273941040039","-0.5234017944335942","15.3277257","74.1245236","0.014808138","0.5753704427859635","0.0"
"14594a3f-3ec4-445b-aa08-fb7d7b251653","2","1768025113217","0.882","8.61495","3.3619502","-0.0988625","-0.3898125","-0.0103124995","-0.21094202995300293","0.11227273941040039","-0.5234017944335942","15.3277257","74.1245236","0.014808138","0.5753704427859635","0.0"
"14594a3f-3ec4-445b-aa08-fb7d7b251653","2","1768025113228","0.90105003","8.442","3.9169502","-0.1230625","-0.4125","0.0133375","0.3157615661621094","0.304138720035553","-0.470324096679688","15.3277257","74.1245236","0.014808138","0.6429700487639973","0.0"
"14594a3f-3ec4-445b-aa08-fb7d7b251653","2","1768025113239","0.90105003","8.442","3.9169502","-0.1230625","-0.4125","0.0133375","0.3157615661621094","0.304138720035553","-0.470324096679688","15.3277257","74.1245236","0.014808138","0.6429700487639973","0.0"
"14594a3f-3ec4-445b-aa08-fb7d7b251653","2","1768025113250","1.26495","8.00205","4.032","-0.0815375","-0.4367","0.002475","0.4222908020019531","0.7143169641494751","-0.79882007598877","15.3277257","74.1245236","0.014808138","1.1518210627219314","0.0"
"14594a3f-3ec4-445b-aa08-fb7d7b251653","2","1768025113261","1.26495","8.00205","4.032","-0.0815375","-0.4367","0.002475","0.4222908020019531","0.7143169641494751","-0.79882007598877","15.3277257","74.1245236","0.014808138","1.1518210627219314","0.0"
"14594a3f-3ec4-445b-aa08-fb7d7b251653","2","1768025113272","1.0540501","7.6000504","3.726","-0.01705","-0.47575","-0.0224125","0.36804652214050293","0.46533703804016113","-1.301012573242188","15.3277257","74.1245236","0.014808138","1.429905772128349","0.0"
"14594a3f-3ec4-445b-aa08-fb7d7b251653","2","1768025113283","1.0540501","7.6000504","3.726","-0.01705","-0.47575","-0.0224125","0.36804652214050293","0.46533703804016113","-1.301012573242188","15.3277257","74.1245236","0.014808138","1.429905772128349","0.0"
"14594a3f-3ec4-445b-aa08-fb7d7b251653","2","1768025113293","0.74805003","7.1020503","3.11295","-0.0149875","-0.4797375","-0.0325875","0.11602091789245605","0.07841235399246216","-2.0209346389770513","15.3277257","74.1245236","0.014808138","2.025780384361679","0.0"
"14594a3f-3ec4-445b-aa08-fb7d7b251653","2","1768025113304","0.74805003","7.1020503","3.11295","-0.0149875","-0.4797375","-0.0325875","0.11602091789245605","0.07841235399246216","-2.0209346389770513","15.3277257","74.1245236","0.014808138","2.025780384361679","0.0"
"14594a3f-3ec4-445b-aa08-fb7d7b251653","2","1768025113315","0.74805003","7.1020503","2.3089502","-0.03135","-0.4742375","-0.075625","-0.5801980495452881","-0.15825879573822021","-2.3288055038452153","15.3277257","74.1245236","0.014808138","2.4052049180609196","0.0"
"14594a3f-3ec4-445b-aa08-fb7d7b251653","2","1768025113326","0.74805003","7.1020503","2.3089502","-0.03135","-0.4742375","-0.075625","-0.5801980495452881","-0.15825879573822021","-2.3288055038452153","15.3277257","74.1245236","0.014808138","2.4052049180609196","0.0"
"14594a3f-3ec4-445b-aa08-fb7d7b251653","2","1768025113337","0.74805003","7.1020503","2.3089502","-0.03135","-0.4742375","-0.075625","-0.5801980495452881","-0.15825879573822021","-2.3288055038452153","15.3277257","74.1245236","0.014808138","2.4052049180609196","0.0"
"14594a3f-3ec4-445b-aa08-fb7d7b251653","2","1768025113348","0.61395","7.3510504","1.983","0.04235","-0.468325","-0.1274625","-0.9040007591247559","-0.427110880613327","-2.2371850585937505","15.3277257","74.1245236","0.014808138","2.4504363005863974","0.0"
"14594a3f-3ec4-445b-aa08-fb7d7b251653","2","1768025113359","0.61395","7.3510504","1.983","0.04235","-0.468325","-0.1274625","-0.9040007591247559","-0.427110880613327","-2.2371850585937505","15.3277257","74.1245236","0.014808138","2.4504363005863974","0.0"
"14594a3f-3ec4-445b-aa08-fb7d7b251653","2","1768025113369","0.09705","7.6000504","3.1890001","0.21573749","-0.4835875","-0.179025","0.25692009925842285","-0.6756423115730286","-1.5991893386840825","15.3277257","74.1245236","0.014808138","1.7549663847354844","0.0"
"14594a3f-3ec4-445b-aa08-fb7d7b251653","2","1768025113380","0.09705","7.6000504","3.1890001","0.21573749","-0.4835875","-0.179025","0.25692009925842285","-0.6756423115730286","-1.5991893386840825","15.3277257","74.1245236","0.014808138","1.7549663847354844","0.0"
"14594a3f-3ec4-445b-aa08-fb7d7b251653","2","1768025113390","-0.112950005","8.442","5.583","0.32175","-0.473","-0.23773749","2.173724412918091","-0.48195648193359375","0.06383747100830028","15.3277257","74.1245236","0.014808138","2.227427910505442","0.0"
"14594a3f-3ec4-445b-aa08-fb7d7b251653","2","1768025113401","-0.112950005","8.442","5.583","0.32175","-0.473","-0.23773749","2.173724412918091","-0.48195648193359375","0.06383747100830028","15.3277257","74.1245236","0.014808138","2.227427910505442","0.0"
"14594a3f-3ec4-445b-aa08-fb7d7b251653","2","1768025113412","0.26895002","8.95905","6.8089504","0.2454375","-0.4365625","-0.256575","3.028291702270508","0.06144821643829346","1.0308670425415034","15.3277257","74.1245236","0.014808138","3.199533306084205","0.0"
"14594a3f-3ec4-445b-aa08-fb7d7b251653","2","1768025113422","0.26895002","8.95905","6.8089504","0.2454375","-0.4365625","-0.256575","3.028291702270508","0.06144821643829346","1.0308670425415034","15.3277257","74.1245236","0.014808138","3.199533306084205","0.0"
"14594a3f-3ec4-445b-aa08-fb7d7b251653","2","1768025113433","1.3800001","10.56795","7.0189505","-0.250525","-0.26235","-0.3095125","2.439033269882202","0.8835619688034058","2.6848825836181636","15.3277257","74.1245236","0.014808138","3.73338446079749","0.0"
"14594a3f-3ec4-445b-aa08-fb7d7b251653","2","1768025113444","1.3800001","10.56795","7.0189505","-0.250525","-0.26235","-0.3095125","2.439033269882202","0.8835619688034058","2.6848825836181636","15.3277257","74.1245236","0.014808138","3.73338446079749","0.0"
"14594a3f-3ec4-445b-aa08-fb7d7b251653","2","1768025113455","1.3800001","10.56795","7.0189505","-0.250525","-0.26235","-0.3095125","2.439033269882202","0.8835619688034058","2.6848825836181636","15.3277257","74.1245236","0.014808138","3.73338446079749","0.0"
"14594a3f-3ec4-445b-aa08-fb7d7b251653","2","1768025113465","1.2070501","11.832001","6.40605","-0.5531625","-0.1830125","-0.276925","1.4154610633850098","0.3875548839569092","3.618960800170898","15.3277257","74.1245236","0.014808138","3.9052024381856905","0.0"
"14594a3f-3ec4-445b-aa08-fb7d7b251653","2","1768025113476","1.2070501","11.832001","6.40605","-0.5531625","-0.1830125","-0.276925","1.4154610633850098","0.3875548839569092","3.618960800170898","15.3277257","74.1245236","0.014808138","3.9052024381856905","0.0"
"14594a3f-3ec4-445b-aa08-fb7d7b251653","2","1768025113486","0.786","12.904051","8.647051","-0.68488747","-0.143825","-0.2385625","2.9644126892089844","0.22978615760803223","5.456410827636718","15.3277257","74.1245236","0.014808138","6.213933004959316","0.0"
"14594a3f-3ec4-445b-aa08-fb7d7b251653","2","1768025113497","0.786","12.904051","8.647051","-0.68488747","-0.143825","-0.2385625","2.9644126892089844","0.22978615760803223","5.456410827636718","15.3277257","74.1245236","0.014808138","6.213933004959316","0.0"
"14594a3f-3ec4-445b-aa08-fb7d7b251653","2","1768025113508","-1.0510501","12.694051","12.3810005","-0.619025","-0.0895125","-0.272525","6.562403202056885","-0.8513312339782715","6.674626770019531","15.3277257","74.1245236","0.014808138","9.398965005540491","0.0"
"14594a3f-3ec4-445b-aa08-fb7d7b251653","3","1768025113518","-1.0510501","12.694051","12.3810005","-0.619025","-0.0895125","-0.272525","6.562403202056885","-0.8513312339782715","6.674626770019531","15.3277178","74.124515","0.048787143","9.398965005540491","0.0"
"14594a3f-3ec4-445b-aa08-fb7d7b251653","3","1768025113529","-1.0510501","12.694051","12.3810005","-0.619025","-0.0895125","-0.272525","6.562403202056885","-0.8513312339782715","6.674626770019531","15.3277178","74.124515","0.048787143","9.398965005540491","0.0"
"14594a3f-3ec4-445b-aa08-fb7d7b251653","3","1768025113540","-1.626","10.989","12.879001","-0.73755","-0.008525","-0.319","7.5377197265625","-1.0543768405914307","5.399921836853027","15.3277178","74.124515","0.048787143","9.33209971240702","0.0"
"14594a3f-3ec4-445b-aa08-fb7d7b251653","3","1768025113550","-1.626","10.989","12.879001","-0.73755","-0.008525","-0.319","7.5377197265625","-1.0543768405914307","5.399921836853027","15.3277178","74.124515","0.048787143","9.33209971240702","0.0"
"14594a3f-3ec4-445b-aa08-fb7d7b251653","3","1768025113561","-1.5109501","9.32295","10.94505","-1.2618375","0.287375","-0.437525","6.17982292175293","-1.0098671913146973","3.220136108398437","15.3277178","74.124515","0.048787143","7.041258385042277","0.0"
"14594a3f-3ec4-445b-aa08-fb7d7b251653","3","1768025113572","-1.5109501","9.32295","10.94505","-1.2618375","0.287375","-0.437525","6.17982292175293","-1.0098671913146973","3.220136108398437","15.3277178","74.124515","0.048787143","7.041258385042277","0.0"
"14594a3f-3ec4-445b-aa08-fb7d7b251653","3","1768025113583","-0.78300005","7.8679504","8.877001","-1.3294874","0.3378375","-0.43505","4.405074596405029","-0.3754274845123291","1.2250914001464839","15.3277178","74.124515","0.048787143","4.587643941581894","0.0"
"14594a3f-3ec4-445b-aa08-fb7d7b251653","3","1768025113594","-0.78300005","7.8679504","8.877001","-1.3294874","0.3378375","-0.43505","4.405074596405029","-0.3754274845123291","1.2250914001464839","15.3277178","74.124515","0.048787143","4.587643941581894","0.0"
"14594a3f-3ec4-445b-aa08-fb7d7b251653","3","1768025113605","0.28800002","6.4890003","7.49805","-1.400025","0.357775","-0.3906375","3.125767469406128","0.6750344038009644","-0.4193273162841802","15.3277178","74.124515","0.048787143","3.225202182390215","0.0"
"14594a3f-3ec4-445b-aa08-fb7d7b251653","3","1768025113615","0.28800002","6.4890003","7.49805","-1.400025","0.357775","-0.3906375","3.125767469406128","0.6750344038009644","-0.4193273162841802","15.3277178","74.124515","0.048787143","3.225202182390215","0.0"
"14594a3f-3ec4-445b-aa08-fb7d7b251653","3","1768025113626","0.28800002","6.4890003","7.49805","-1.400025","0.357775","-0.3906375","3.125767469406128","0.6750344038009644","-0.4193273162841802","15.3277178","74.124515","0.048787143","3.225202182390215","0.0"
"14594a3f-3ec4-445b-aa08-fb7d7b251653","3","1768025113637","1.092","5.6470504","6.1000504","-1.3399374","0.294525","-0.26785","1.8356389999389648","1.356677770614624","-1.7426515197753911","15.3277178","74.124515","0.048787143","2.871755461516922","0.0"
"14594a3f-3ec4-445b-aa08-fb7d7b251653","3","1768025113648","1.092","5.6470504","6.1000504","-1.3399374","0.294525","-0.26785","1.8356389999389648","1.356677770614624","-1.7426515197753911","15.3277178","74.124515","0.048787143","2.871755461516922","0.0"
"14594a3f-3ec4-445b-aa08-fb7d7b251653","3","1768025113658","1.3219501","5.2249503","5.181","-1.2461625","0.265375","-0.2358125","0.9930620193481445","1.4796521663665771","-2.549498615264893","15.3277178","74.124515","0.048787143","3.1105443087894966","0.0"
"14594a3f-3ec4-445b-aa08-fb7d7b251653","3","1768025113669","1.3219501","5.2249503","5.181","-1.2461625","0.265375","-0.2358125","0.9930620193481445","1.4796521663665771","-2.549498615264893","15.3277178","74.124515","0.048787143","3.1105443087894966","0.0"
"14594a3f-3ec4-445b-aa08-fb7d7b251653","3","1768025113679","0.9580501","5.16795","5.16195","-1.01805","0.1243","-0.0611875","0.8669657707214355","1.137447476387024","-2.5832515335083013","15.3277178","74.124515","0.048787143","2.952728381432131","0.0"
"14594a3f-3ec4-445b-aa08-fb7d7b251653","3","1768025113690","0.9580501","5.16795","5.16195","-1.01805","0.1243","-0.0611875","0.8669657707214355","1.137447476387024","-2.5832515335083013","15.3277178","74.124515","0.048787143","2.952728381432131","0.0"
"14594a3f-3ec4-445b-aa08-fb7d7b251653","3","1768025113701","0.34605002","5.379","5.54505","-1.01035","0.108625","-0.011","1.0067799091339111","0.5630383491516113","-2.163408813476563","15.3277178","74.124515","0.048787143","2.4517250380658777","0.0"
"14594a3f-3ec4-445b-aa08-fb7d7b251653","3","1768025113712","0.34605002","5.379","5.54505","-1.01035","0.108625","-0.011","1.0067799091339111","0.5630383491516113","-2.163408813476563","15.3277178","74.124515","0.048787143","2.4517250380658777","0.0"
"14594a3f-3ec4-445b-aa08-fb7d7b251653","3","1768025113722","0.0010500001","5.4550505","5.2579503","-1.07195","0.136675","-0.00495","0.6378982067108154","0.13073194026947021","-2.2615151977539067","15.3277178","74.124515","0.048787143","2.3533924347637787","0.0"
"14594a3f-3ec4-445b-aa08-fb7d7b251653","3","1768025113733","0.0010500001","5.4550505","5.2579503","-1.07195","0.136675","-0.00495","0.6378982067108154","0.13073194026947021","-2.2615151977539067","15.3277178","74.124515","0.048787143","2.3533924347637787","0.0"
"14594a3f-3ec4-445b-aa08-fb7d7b251653","3","1768025113744","0.0010500001","5.4550505","5.2579503","-1.07195","0.136675","-0.00495","0.6378982067108154","0.13073194026947021","-2.2615151977539067","15.3277178","74.124515","0.048787143","2.3533924347637787","0.0"
"14594a3f-3ec4-445b-aa08-fb7d7b251653","3","1768025113754","-0.132","5.742","4.3770003","-1.0883125","0.1780625","-0.0567875","-0.35047364234924316","-0.24277186393737793","-2.6013703918457036","15.3277178","74.124515","0.048787143","2.6360762256567325","0.0"
"14594a3f-3ec4-445b-aa08-fb7d7b251653","3","1768025113765","-0.132","5.742","4.3770003","-1.0883125","0.1780625","-0.0567875","-0.35047364234924316","-0.24277186393737793","-2.6013703918457036","15.3277178","74.124515","0.048787143","2.6360762256567325","0.0"
"14594a3f-3ec4-445b-aa08-fb7d7b251653","3","1768025113776","0.192","6.1060505","3.76395","-1.00155","0.136675","-0.042625","-1.2939491271972656","-0.12782669067382812","-2.753273544311524","15.3277178","74.124515","0.048787143","3.044857831891159","0.0"
"14594a3f-3ec4-445b-aa08-fb7d7b251653","3","1768025113786","0.192","6.1060505","3.76395","-1.00155","0.136675","-0.042625","-1.2939491271972656","-0.12782669067382812","-2.753273544311524","15.3277178","74.124515","0.048787143","3.044857831891159","0.0"
"14594a3f-3ec4-445b-aa08-fb7d7b251653","3","1768025113797","0.192","6.1060505","3.76395","-1.00155","0.136675","-0.042625","-1.2939491271972656","-0.12782669067382812","-2.753273544311524","15.3277178","74.124515","0.048787143","3.044857831891159","0.0"
"14594a3f-3ec4-445b-aa08-fb7d7b251653","3","1768025113807","0.51795","6.46995","3.6679502","-0.23127499","-0.2046","0.091025","-1.8487107753753662","0.08120113611221313","-2.5879464721679692","15.3277178","74.124515","0.048787143","3.1814764022858224","0.0"
"14594a3f-3ec4-445b-aa08-fb7d7b251653","3","1768025113818","0.51795","6.46995","3.6679502","-0.23127499","-0.2046","0.091025","-1.8487107753753662","0.08120113611221313","-2.5879464721679692","15.3277178","74.124515","0.048787143","3.1814764022858224","0.0"
"14594a3f-3ec4-445b-aa08-fb7d7b251653","3","1768025113829","0.46005002","7.04505","3.9750001","0.07095","-0.335775","0.1368125","-2.0190589427948","-0.059816062450408936","-1.9636741256713872","15.3277178","74.124515","0.048787143","2.8171249613103804","0.0"
"14594a3f-3ec4-445b-aa08-fb7d7b251653","3","1768025113840","0.46005002","7.04505","3.9750001","0.07095","-0.335775","0.1368125","-2.0190589427948","-0.059816062450408936","-1.9636741256713872","15.3277178","74.124515","0.048787143","2.8171249613103804","0.0"
"14594a3f-3ec4-445b-aa08-fb7d7b251653","3","1768025113850","0.30705002","7.56195","4.3770003","0.3993","-0.423225","0.1159125","-1.9863171577453613","-0.27850914001464844","-1.3004479980468755","15.3277178","74.124515","0.048787143","2.390436819464057","0.0"
"14594a3f-3ec4-445b-aa08-fb7d7b251653","3","1768025113861","0.30705002","7.56195","4.3770003","0.3993","-0.423225","0.1159125","-1.9863171577453613","-0.27850914001464844","-1.3004479980468755","15.3277178","74.124515","0.048787143","2.390436819464057","0.0"
"14594a3f-3ec4-445b-aa08-fb7d7b251653","3","1768025113871","0.192","7.90605","4.10895","0.6774625","-0.47341248","0.034375","-2.2428171634674072","-0.5340054631233215","-1.201250610351563","15.3277178","74.124515","0.048787143","2.599691076312634","0.0"
"14594a3f-3ec4-445b-aa08-fb7d7b251653","3","1768025113882","0.192","7.90605","4.10895","0.6774625","-0.47341248","0.034375","-2.2428171634674072","-0.5340054631233215","-1.201250610351563","15.3277178","74.124515","0.048787143","2.599691076312634","0.0"
"14594a3f-3ec4-445b-aa08-fb7d7b251653","3","1768025113893","-0.05595","7.9450502","4.24305","0.70785","-0.468325","0.0056375","-1.9221041202545166","-0.7718384861946106","-1.0441451644897466","15.3277178","74.124515","0.048787143","2.3195814325860384","0.0"
"14594a3f-3ec4-445b-aa08-fb7d7b251653","3","1768025113903","-0.05595","7.9450502","4.24305","0.70785","-0.468325","0.0056375","-1.9221041202545166","-0.7718384861946106","-1.0441451644897466","15.3277178","74.124515","0.048787143","2.3195814325860384","0.0"
"14594a3f-3ec4-445b-aa08-fb7d7b251653","3","1768025113914","-0.05595","7.9450502","4.24305","0.70785","-0.468325","0.0056375","-1.9221041202545166","-0.7718384861946106","-1.0441451644897466","15.3277178","74.124515","0.048787143","2.3195814325860384","0.0"
"14594a3f-3ec4-445b-aa08-fb7d7b251653","3","1768025113925","-0.36195","7.8679504","5.0659504","0.890175","-0.3823875","-0.1962125","-0.990786075592041","-0.9303277134895325","-0.5443454360961919","15.3277178","74.124515","0.048787143","1.4640623811410813","0.0"
"14594a3f-3ec4-445b-aa08-fb7d7b251653","3","1768025113935","-0.36195","7.8679504","5.0659504","0.890175","-0.3823875","-0.1962125","-0.990786075592041","-0.9303277134895325","-0.5443454360961919","15.3277178","74.124515","0.048787143","1.4640623811410813","0.0"
"14594a3f-3ec4-445b-aa08-fb7d7b251653","3","1768025113946","-0.45795003","7.4080505","5.9659505","0.9604375","-0.326975","-0.3037375","0.19174671173095703","-0.76243656873703","-0.3198247528076177","15.3277178","74.124515","0.048787143","0.8487427144403564","0.0"
"14594a3f-3ec4-445b-aa08-fb7d7b251653","3","1768025113956","-0.45795003","7.4080505","5.9659505","0.9604375","-0.326975","-0.3037375","0.19174671173095703","-0.76243656873703","-0.3198247528076177","15.3277178","74.124515","0.048787143","0.8487427144403564","0.0"
"14594a3f-3ec4-445b-aa08-fb7d7b251653","3","1768025113967","-0.16995001","6.642","6.5599504","0.909425","-0.2303125","-0.4217125","1.2215850353240967","-0.21671169996261597","-0.5558782196044927","15.3277178","74.124515","0.048787143","1.3594979052794167","0.0"
"14594a3f-3ec4-445b-aa08-fb7d7b251653","3","1768025113977","-0.16995001","6.642","6.5599504","0.909425","-0.2303125","-0.4217125","1.2215850353240967","-0.21671169996261597","-0.5558782196044927","15.3277178","74.124515","0.048787143","1.3594979052794167","0.0"
"14594a3f-3ec4-445b-aa08-fb7d7b251653","3","1768025113988","0.32595003","6.2590504","6.9040504","0.7238","-0.180125","-0.446875","1.7546241283416748","0.4357680678367615","-0.6623635864257817","15.3277178","74.124515","0.048787143","1.9254415497043245","0.0"
"14594a3f-3ec4-445b-aa08-fb7d7b251653","3","1768025113998","0.32595003","6.2590504","6.9040504","0.7238","-0.180125","-0.446875","1.7546241283416748","0.4357680678367615","-0.6623635864257817","15.3277178","74.124515","0.048787143","1.9254415497043245","0.0"
"14594a3f-3ec4-445b-aa08-fb7d7b251653","3","1768025114009","0.32595003","6.2590504","6.9040504","0.7238","-0.180125","-0.446875","1.7546241283416748","0.4357680678367615","-0.6623635864257817","15.3277178","74.124515","0.048787143","1.9254415497043245","0.0"
"14594a3f-3ec4-445b-aa08-fb7d7b251653","3","1768025114019","0.55605","6.2590504","7.2679505","0.602525","-0.179025","-0.4186875","2.0714058876037598","0.7627071142196655","-0.45930152893066456","15.3277178","74.124515","0.048787143","2.2546401903094995","0.0"
"14594a3f-3ec4-445b-aa08-fb7d7b251653","3","1768025114030","0.55605","6.2590504","7.2679505","0.602525","-0.179025","-0.4186875","2.0714058876037598","0.7627071142196655","-0.45930152893066456","15.3277178","74.124515","0.048787143","2.2546401903094995","0.0"
"14594a3f-3ec4-445b-aa08-fb7d7b251653","3","1768025114040","0.30705002","7.2169504","8.20605","-0.15015","-0.142725","-0.28215","2.3737540245056152","0.5716919898986816","0.8462824249267573","15.3277178","74.124515","0.048787143","2.5841311582253","0.0"
"14594a3f-3ec4-445b-aa08-fb7d7b251653","3","1768025114050","0.30705002","7.2169504","8.20605","-0.15015","-0.142725","-0.28215","2.3737540245056152","0.5716919898986816","0.8462824249267573","15.3277178","74.124515","0.048787143","2.5841311582253","0.0"
"14594a3f-3ec4-445b-aa08-fb7d7b251653","3","1768025114061","0.90105003","8.61495","8.13","-0.45113748","-0.1354375","-0.2506625","1.348081111907959","1.0055334568023682","1.9500059509277339","15.3277178","74.124515","0.048787143","2.5750618294878853","0.0"
"14594a3f-3ec4-445b-aa08-fb7d7b251653","3","1768025114071","0.90105003","8.61495","8.13","-0.45113748","-0.1354375","-0.2506625","1.348081111907959","1.0055334568023682","1.9500059509277339","15.3277178","74.124515","0.048787143","2.5750618294878853","0.0"
"14594a3f-3ec4-445b-aa08-fb7d7b251653","3","1768025114082","1.284","9.802051","7.7470503","-0.61242497","-0.1456125","-0.2299","0.1589803695678711","1.2155885696411133","2.689708175659179","15.3277178","74.124515","0.048787143","2.9559195521458115","0.0"
"14594a3f-3ec4-445b-aa08-fb7d7b251653","3","1768025114093","1.284","9.802051","7.7470503","-0.61242497","-0.1456125","-0.2299","0.1589803695678711","1.2155885696411133","2.689708175659179","15.3277178","74.124515","0.048787143","2.9559195521458115","0.0"
"14594a3f-3ec4-445b-aa08-fb7d7b251653","3","1768025114103","1.284","9.802051","7.7470503","-0.61242497","-0.1456125","-0.2299","0.1589803695678711","1.2155885696411133","2.689708175659179","15.3277178","74.124515","0.048787143","2.9559195521458115","0.0"
"14594a3f-3ec4-445b-aa08-fb7d7b251653","3","1768025114114","0.82395005","10.85505","8.70405","-0.58355","-0.2024","-0.1931875","0.16958856582641602","0.7655972242355347","4.106055679321289","15.3277178","74.124515","0.048787143","4.1802622684591","0.0"
"14594a3f-3ec4-445b-aa08-fb7d7b251653","3","1768025114125","0.82395005","10.85505","8.70405","-0.58355","-0.2024","-0.1931875","0.16958856582641602","0.7655972242355347","4.106055679321289","15.3277178","74.124515","0.048787143","4.1802622684591","0.0"
"14594a3f-3ec4-445b-aa08-fb7d7b251653","3","1768025114136","-0.16995001","10.128","11.634001","-0.5627875","-0.2332","-0.16445","2.838222026824951","0.14839529991149902","5.351718368530273","15.3277178","74.124515","0.048787143","6.059572174226039","0.0"
"14594a3f-3ec4-445b-aa08-fb7d7b251653","3","1768025114146","-0.16995001","10.128","11.634001","-0.5627875","-0.2332","-0.16445","2.838222026824951","0.14839529991149902","5.351718368530273","15.3277178","74.124515","0.048787143","6.059572174226039","0.0"
"14594a3f-3ec4-445b-aa08-fb7d7b251653","3","1768025114157","-0.68805003","9.55305","12.667951","-0.8358625","-0.2077625","-0.108625","3.8523712158203125","-0.2612422704696655","5.594614448547363","15.3277178","74.124515","0.048787143","6.797699782739447","0.0"
"14594a3f-3ec4-445b-aa08-fb7d7b251653","3","1768025114168","-0.68805003","9.55305","12.667951","-0.8358625","-0.2077625","-0.108625","3.8523712158203125","-0.2612422704696655","5.594614448547363","15.3277178","74.124515","0.048787143","6.797699782739447","0.0"
"14594a3f-3ec4-445b-aa08-fb7d7b251653","3","1768025114179","0.0010500001","8.404051","11.806951","-0.9598875","-0.1615625","-0.12595","3.534696102142334","0.3648834824562073","4.240087928771972","15.3277178","74.124515","0.048787143","5.532229399978581","0.0"
"14594a3f-3ec4-445b-aa08-fb7d7b251653","3","1768025114190","0.0010500001","8.404051","11.806951","-0.9598875","-0.1615625","-0.12595","3.534696102142334","0.3648834824562073","4.240087928771972","15.3277178","74.124515","0.048787143","5.532229399978581","0.0"
"14594a3f-3ec4-445b-aa08-fb7d7b251653","3","1768025114200","0.0010500001","8.404051","11.806951","-0.9598875","-0.1615625","-0.12595","3.534696102142334","0.3648834824562073","4.240087928771972","15.3277178","74.124515","0.048787143","5.532229399978581","0.0"
"14594a3f-3ec4-445b-aa08-fb7d7b251653","3","1768025114211","0.058050003","7.2169504","10.31295","-1.0322125","-0.144375","-0.109725","2.85676908493042","0.33113986253738403","2.4445452117919917","15.3277178","74.124515","0.048787143","3.7744647972488257","0.0"
"14594a3f-3ec4-445b-aa08-fb7d7b251653","3","1768025114222","0.058050003","7.2169504","10.31295","-1.0322125","-0.144375","-0.109725","2.85676908493042","0.33113986253738403","2.4445452117919917","15.3277178","74.124515","0.048787143","3.7744647972488257","0.0"
"14594a3f-3ec4-445b-aa08-fb7d7b251653","3","1768025114232","-0.28500003","6.46995","9.04905","-0.979","-0.1186625","-0.100099996","2.1576199531555176","-0.10166168212890625","1.1060947799682612","15.3277178","74.124515","0.048787143","2.4267477458815394","0.0"
"14594a3f-3ec4-445b-aa08-fb7d7b251653","3","1768025114243","-0.28500003","6.46995","9.04905","-0.979","-0.1186625","-0.100099996","2.1576199531555176","-0.10166168212890625","1.1060947799682612","15.3277178","74.124515","0.048787143","2.4267477458815394","0.0"
"14594a3f-3ec4-445b-aa08-fb7d7b251653","3","1768025114254","-0.726","6.1450505","7.24905","-0.9244125","-0.11165","-0.09735","0.8625140190124512","-0.6813395619392395","-0.34272438049316456","15.3277178","74.124515","0.048787143","1.1513531311639316","0.0"
"14594a3f-3ec4-445b-aa08-fb7d7b251653","3","1768025114265","-0.726","6.1450505","7.24905","-0.9244125","-0.11165","-0.09735","0.8625140190124512","-0.6813395619392395","-0.34272438049316456","15.3277178","74.124515","0.048787143","1.1513531311639316","0.0"
"14594a3f-3ec4-445b-aa08-fb7d7b251653","3","1768025114275","-0.43905002","5.6850004","5.50605","-0.600875","-0.06875","-0.1533125","-0.24971628189086914","-0.5148667097091675","-1.9042335128784185","15.3277178","74.124515","0.048787143","1.9883538975186048","0.0"
"14594a3f-3ec4-445b-aa08-fb7d7b251653","3","1768025114286","-0.43905002","5.6850004","5.50605","-0.600875","-0.06875","-0.1533125","-0.24971628189086914","-0.5148667097091675","-1.9042335128784185","15.3277178","74.124515","0.048787143","1.9883538975186048","0.0"
"14594a3f-3ec4-445b-aa08-fb7d7b251653","3","1768025114297","-0.43905002","5.6850004","5.50605","-0.600875","-0.06875","-0.1533125","-0.24971628189086914","-0.5148667097091675","-1.9042335128784185","15.3277178","74.124515","0.048787143","1.9883538975186048","0.0"
"14594a3f-3ec4-445b-aa08-fb7d7b251653","3","1768025114308","0.135","5.3980503","4.64505","-0.4785","-0.0191125","-0.20515","-0.7993893623352051","0.01575767993927002","-2.732261238098145","15.3277178","74.124515","0.048787143","2.846844416245005","0.0"
"14594a3f-3ec4-445b-aa08-fb7d7b251653","3","1768025114318","0.135","5.3980503","4.64505","-0.4785","-0.0191125","-0.20515","-0.7993893623352051","0.01575767993927002","-2.732261238098145","15.3277178","74.124515","0.048787143","2.846844416245005","0.0"
"14594a3f-3ec4-445b-aa08-fb7d7b251653","3","1768025114329","0.42195","5.41695","4.7980504","-0.370425","0.0133375","-0.2374625","-0.823857307434082","0.3256758749485016","-2.615705070495606","15.3277178","74.124515","0.048787143","2.7616514360708937","0.0"
"14594a3f-3ec4-445b-aa08-fb7d7b251653","3","1768025114339","0.42195","5.41695","4.7980504","-0.370425","0.0133375","-0.2374625","-0.823857307434082","0.3256758749485016","-2.615705070495606","15.3277178","74.124515","0.048787143","2.7616514360708937","0.0"
"14594a3f-3ec4-445b-aa08-fb7d7b251653","3","1768025114350","0.61395","5.493","5.4870005","-0.34155","0.048125","-0.2512125","-0.506615400314331","0.5843507051467896","-2.0602231597900396","15.3277178","74.124515","0.048787143","2.200600913063624","0.0"
"14594a3f-3ec4-445b-aa08-fb7d7b251653","3","1768025114361","0.61395","5.493","5.4870005","-0.34155","0.048125","-0.2512125","-0.506615400314331","0.5843507051467896","-2.0602231597900396","15.3277178","74.124515","0.048787143","2.200600913063624","0.0"
"14594a3f-3ec4-445b-aa08-fb7d7b251653","3","1768025114372","0.49905002","5.5129504","6.1189504","-0.3708375","0.0438625","-0.2319625","-0.15822458267211914","0.5445588827133179","-1.5782533264160161","15.3277178","74.124515","0.048787143","1.6770399391925535","0.0"
"14594a3f-3ec4-445b-aa08-fb7d7b251653","3","1768025114382","0.49905002","5.5129504","6.1189504","-0.3708375","0.0438625","-0.2319625","-0.15822458267211914","0.5445588827133179","-1.5782533264160161","15.3277178","74.124515","0.048787143","1.6770399391925535","0.0"
"14594a3f-3ec4-445b-aa08-fb7d7b251653","3","1768025114393","0.49905002","5.5129504","6.1189504","-0.3708375","0.0438625","-0.2319625","-0.15822458267211914","0.5445588827133179","-1.5782533264160161","15.3277178","74.124515","0.048787143","1.6770399391925535","0.0"
"14594a3f-3ec4-445b-aa08-fb7d7b251653","3","1768025114404","0.34605002","5.6470504","6.3300004","-0.2858625","-0.0446875","-0.1868625","-0.1805553436279297","0.42577388882637024","-1.3327394104003911","15.3277178","74.124515","0.048787143","1.4107012343346526","0.0"
"14594a3f-3ec4-445b-aa08-fb7d7b251653","3","1768025114415","0.34605002","5.6470504","6.3300004","-0.2858625","-0.0446875","-0.1868625","-0.1805553436279297","0.42577388882637024","-1.3327394104003911","15.3277178","74.124515","0.048787143","1.4107012343346526","0.0"
"14594a3f-3ec4-445b-aa08-fb7d7b251653","3","1768025114426","0.441","5.8000503","5.9280005","-0.1387375","-0.1529","-0.1445125","-0.616943359375","0.49221211671829224","-1.5423913574218755","15.3277178","74.124515","0.048787143","1.7325885189423678","0.0"
"14594a3f-3ec4-445b-aa08-fb7d7b251653","3","1768025114437","0.441","5.8000503","5.9280005","-0.1387375","-0.1529","-0.1445125","-0.616943359375","0.49221211671829224","-1.5423913574218755","15.3277178","74.124515","0.048787143","1.7325885189423678","0.0"
"14594a3f-3ec4-445b-aa08-fb7d7b251653","3","1768025114447","0.42195","6.1450505","5.6790004","0.0495","-0.207625","-0.1582625","-1.0533523559570312","0.42925459146499634","-1.5095830535888677","15.3277178","74.124515","0.048787143","1.8901459429834246","0.0"
"14594a3f-3ec4-445b-aa08-fb7d7b251653","3","1768025114458","0.42195","6.1450505","5.6790004","0.0495","-0.207625","-0.1582625","-1.0533523559570312","0.42925459146499634","-1.5095830535888677","15.3277178","74.124515","0.048787143","1.8901459429834246","0.0"
"14594a3f-3ec4-445b-aa08-fb7d7b251653","3","1768025114469","0.42195","6.1450505","5.6790004","0.0495","-0.207625","-0.1582625","-1.0533523559570312","0.42925459146499634","-1.5095830535888677","15.3277178","74.124515","0.048787143","1.8901459429834246","0.0"
"14594a3f-3ec4-445b-aa08-fb7d7b251653","3","1768025114480","0.28800002","6.60405","5.29605","0.3636875","-0.2673","-0.1925","-1.609440565109253","0.2400159239768982","-1.4975591278076177","15.3277178","74.124515","0.048787143","2.211467819721008","0.0"
"14594a3f-3ec4-445b-aa08-fb7d7b251653","3","1768025114491","0.28800002","6.60405","5.29605","0.3636875","-0.2673","-0.1925","-1.609440565109253","0.2400159239768982","-1.4975591278076177","15.3277178","74.124515","0.048787143","2.211467819721008","0.0"
"14594a3f-3ec4-445b-aa08-fb7d7b251653","3","1768025114502","0.11595","6.9870005","6.4450502","0.4541625","-0.2820125","-0.2011625","-1.0209650993347168","0.1133100688457489","-0.3593335723876958","15.3277178","74.124515","0.048787143","1.0882690485382187","0.0"
"14594a3f-3ec4-445b-aa08-fb7d7b251653","3","1768025114513","0.11595","6.9870005","6.4450502","0.4541625","-0.2820125","-0.2011625","-1.0209650993347168","0.1133100688457489","-0.3593335723876958","15.3277178","74.124515","0.048787143","1.0882690485382187","0.0"
"14594a3f-3ec4-445b-aa08-fb7d7b251653","3","1768025114524","0.076950006","7.3890004","7.3639503","0.4151125","-0.337425","-0.0974875","-0.563626766204834","0.09484902024269104","0.6065420532226558","15.3277178","74.124515","0.048787143","0.8334055018723311","0.0"
"14594a3f-3ec4-445b-aa08-fb7d7b251653","3","1768025114534","0.076950006","7.3890004","7.3639503","0.4151125","-0.337425","-0.0974875","-0.563626766204834","0.09484902024269104","0.6065420532226558","15.3277178","74.124515","0.048787143","0.8334055018723311","0.0"
"14594a3f-3ec4-445b-aa08-fb7d7b251653","3","1768025114545","0.25005","7.4659505","7.2300005","0.33825","-0.3510375","-0.042625","-0.5962491035461426","0.22795246541500092","0.5663370513916011","15.3277178","74.124515","0.048787143","0.8533539568943762","0.0"
