session_id,window_id,timestamp,accel_x,accel_y,accel_z,gyro_x,gyro_y,gyro_z,linear_accel_x,linear_accel_y,linear_accel_z,latitude,longitude,speed,vibration_intensity,anomaly_score,raw_magnitude,vibration_only
635a8325-73b2-495f-9abf-a2c6b617f5ad,7,1767701133034,-3.3679502,6.35505,-6.36495,0.0702625,-0.0818125,-0.1596375,0.1614298820495605,0.6955751180648804,-0.2322927093505864,15.4210861,73.9811964,0.39071375,0.7508956348967167,0.0,0.19265055273408896,0.0101896651910275
635a8325-73b2-495f-9abf-a2c6b617f5ad,7,1767701133045,-3.3679502,6.35505,-6.36495,0.0702625,-0.0818125,-0.1596375,0.1614298820495605,0.6955751180648804,-0.2322927093505864,15.4210861,73.9811964,0.39071375,0.7508956348967167,0.0,0.19265055273408896,0.000591890198622769
635a8325-73b2-495f-9abf-a2c6b617f5ad,7,1767701133056,-3.1579502,6.4510503,-6.3079505,0.064625,-0.0768625,-0.1750375,0.0794558525085449,0.4149141013622284,-0.2601056671142583,15.4210861,73.9811964,0.39071375,0.4961067446346991,0.0,0.2017978219344798,0.004852214448639959
635a8325-73b2-495f-9abf-a2c6b617f5ad,7,1767701133067,-3.1579502,6.4510503,-6.3079505,0.064625,-0.0768625,-0.1750375,0.0794558525085449,0.4149141013622284,-0.2601056671142583,15.4210861,73.9811964,0.39071375,0.4961067446346991,0.0,0.2017978219344798,0.005110067236021671
635a8325-73b2-495f-9abf-a2c6b617f5ad,7,1767701133077,-2.9850001,6.46995,-6.1740003,0.0587125,-0.058025,-0.16293749,-0.0140061378479003,0.2057970762252807,-0.384172973632813,15.4210861,73.9811964,0.39071375,0.4360475686781964,0.0,0.18265454806478293,-0.008656727527690552
635a8325-73b2-495f-9abf-a2c6b617f5ad,7,1767701133088,-2.9850001,6.46995,-6.1740003,0.0587125,-0.058025,-0.16293749,-0.0140061378479003,0.2057970762252807,-0.384172973632813,15.4210861,73.9811964,0.39071375,0.4360475686781964,0.0,0.18265454806478293,0.001390200699795241
635a8325-73b2-495f-9abf-a2c6b617f5ad,7,1767701133099,-2.832,6.5850005,-6.09705,0.0551375,-0.0352,-0.1412125,-0.1256561279296875,-0.0102442204952239,-0.4003968811035161,15.4210861,73.9811964,0.39071375,0.4197762129245296,0.0,0.15562825599003544,-0.011715116678257568
635a8325-73b2-495f-9abf-a2c6b617f5ad,7,1767701133110,-2.832,6.5850005,-6.09705,0.0551375,-0.0352,-0.1412125,-0.1256561279296875,-0.0102442204952239,-0.4003968811035161,15.4210861,73.9811964,0.39071375,0.4197762129245296,0.0,0.15562825599003544,0.005035273068977051
635a8325-73b2-495f-9abf-a2c6b617f5ad,7,1767701133121,-2.832,6.5850005,-6.09705,0.0551375,-0.0352,-0.1412125,-0.1256561279296875,-0.0102442204952239,-0.4003968811035161,15.4210861,73.9811964,0.39071375,0.4197762129245296,0.0,0.15562825599003544,0.023437259697409684
635a8325-73b2-495f-9abf-a2c6b617f5ad,7,1767701133132,-2.871,6.5280004,-6.1740003,0.047575,-0.02035,-0.089237496,-0.0480470657348632,0.0087024271488189,-0.3774314498901372,15.4210861,73.9811964,0.39071375,0.3805768675710361,0.0,0.10315441734288462,-0.01017585457614414
635a8325-73b2-495f-9abf-a2c6b617f5ad,7,1767701133142,-2.871,6.5280004,-6.1740003,0.047575,-0.02035,-0.089237496,-0.0480470657348632,0.0087024271488189,-0.3774314498901372,15.4210861,73.9811964,0.39071375,0.3805768675710361,0.0,0.10315441734288462,0.008045118151072275
635a8325-73b2-495f-9abf-a2c6b617f5ad,7,1767701133153,-3.0240002,6.4890003,-6.4030504,0.0325875,0.01045,-0.0257125,0.1083412170410156,0.1273995041847229,-0.2067294692993169,15.4210861,73.9811964,0.39071375,0.2659051079863245,0.0,0.04280514352855273,-0.03563723913133532
635a8325-73b2-495f-9abf-a2c6b617f5ad,7,1767701133164,-3.0240002,6.4890003,-6.4030504,0.0325875,0.01045,-0.0257125,0.1083412170410156,0.1273995041847229,-0.2067294692993169,15.4210861,73.9811964,0.39071375,0.2659051079863245,0.0,0.04280514352855273,-0.02119313718185023
635a8325-73b2-495f-9abf-a2c6b617f5ad,7,1767701133175,-3.1960502,6.5280004,-6.3460503,0.0132,0.037675,-0.0011,0.00043392181396484375,0.2673478126525879,-0.1647716140747075,15.4210861,73.9811964,0.39071375,0.3140457387436553,0.0,0.03993564354057663,-0.012237324163373977
635a8325-73b2-495f-9abf-a2c6b617f5ad,7,1767701133186,-3.1960502,6.5280004,-6.3460503,0.0132,0.037675,-0.0011,0.00043392181396484375,0.2673478126525879,-0.1647716140747075,15.4210861,73.9811964,0.39071375,0.3140457387436553,0.0,0.03993564354057663,-0.0031622493473044406
635a8325-73b2-495f-9abf-a2c6b617f5ad,7,1767701133196,-3.25305,6.5850005,-6.3079505,0.0001375,0.034925,-0.0154,-0.0786848068237304,0.2986749112606048,-0.1332517242431645,15.4210861,73.9811964,0.39071375,0.3363837443385074,0.0,0.03816981177907483,0.0014896092530113938
635a8325-73b2-495f-9abf-a2c6b617f5ad,7,1767701133207,-3.25305,6.5850005,-6.3079505,0.0001375,0.034925,-0.0154,-0.0786848068237304,0.2986749112606048,-0.1332517242431645,15.4210861,73.9811964,0.39071375,0.3363837443385074,0.0,0.03816981177907483,0.005503078664386696
635a8325-73b2-495f-9abf-a2c6b617f5ad,7,1767701133218,-3.2730002,6.5280004,-6.36495,-0.0059125,0.0422125,-0.0268125,-0.0052518844604492,0.3261941373348236,-0.1283937072753911,15.4210861,73.9811964,0.39071375,0.3505925578073706,0.0,0.05035635976468116,0.01963623666315613
635a8325-73b2-495f-9abf-a2c6b617f5ad,7,1767701133229,-3.2730002,6.5280004,-6.36495,-0.0059125,0.0422125,-0.0268125,-0.0052518844604492,0.3261941373348236,-0.1283937072753911,15.4210861,73.9811964,0.39071375,0.3505925578073706,0.0,0.05035635976468116,0.019862494677984167
635a8325-73b2-495f-9abf-a2c6b617f5ad,7,1767701133240,-3.2730002,6.5280004,-6.36495,-0.0059125,0.0422125,-0.0268125,-0.0052518844604492,0.3261941373348236,-0.1283937072753911,15.4210861,73.9811964,0.39071375,0.3505925578073706,0.0,0.05035635976468116,0.01866248710845515
635a8325-73b2-495f-9abf-a2c6b617f5ad,7,1767701133250,-3.4639502,6.432,-6.327,-0.0053625,0.0328625,-0.0367125,-0.0109510421752929,0.5282896757125854,-0.1600595092773442,15.4210861,73.9811964,0.39071375,0.552113170735256,0.0,0.04956317149608165,0.015446104530125657
635a8325-73b2-495f-9abf-a2c6b617f5ad,7,1767701133261,-3.4639502,6.432,-6.327,-0.0053625,0.0328625,-0.0367125,-0.0109510421752929,0.5282896757125854,-0.1600595092773442,15.4210861,73.9811964,0.39071375,0.552113170735256,0.0,0.04956317149608165,0.011901086253618638
635a8325-73b2-495f-9abf-a2c6b617f5ad,7,1767701133272,-3.59805,6.46995,-6.2689505,0.0086624995,0.0204875,-0.0312125,-0.1036567687988281,0.6226309537887573,-0.1297326660156255,15.4210861,73.9811964,0.39071375,0.6443947508827436,0.0,0.038327492875056414,-0.0039851402313512444
635a8325-73b2-495f-9abf-a2c6b617f5ad,7,1767701133283,-3.59805,6.46995,-6.2689505,0.0086624995,0.0204875,-0.0312125,-0.1036567687988281,0.6226309537887573,-0.1297326660156255,15.4210861,73.9811964,0.39071375,0.6443947508827436,0.0,0.038327492875056414,-0.009771726707713292
635a8325-73b2-495f-9abf-a2c6b617f5ad,7,1767701133294,-3.6750002,6.5659504,-6.2689505,0.007425,0.00275,-0.03135,-0.1732306480407714,0.6249914169311523,-0.0377708053588872,15.4210861,73.9811964,0.39071375,0.6496535710636047,0.0,0.03233443404483833,-0.022714581678290487
635a8325-73b2-495f-9abf-a2c6b617f5ad,7,1767701133305,-3.6750002,6.5659504,-6.2689505,0.007425,0.00275,-0.03135,-0.1732306480407714,0.6249914169311523,-0.0377708053588872,15.4210861,73.9811964,0.39071375,0.6496535710636047,0.0,0.03233443404483833,-0.030801135924269248
635a8325-73b2-495f-9abf-a2c6b617f5ad,7,1767701133315,-3.59805,6.5470505,-6.2689505,0.00605,-0.05115,-0.041525,-0.1396360397338867,0.5281842947006226,-0.0728993988037114,15.4210861,73.9811964,0.39071375,0.5511725638190822,0.0,0.06616079371500919,-0.006078904351737782
635a8325-73b2-495f-9abf-a2c6b617f5ad,7,1767701133326,-3.59805,6.5470505,-6.2689505,0.00605,-0.05115,-0.041525,-0.1396360397338867,0.5281842947006226,-0.0728993988037114,15.4210861,73.9811964,0.39071375,0.5511725638190822,0.0,0.06616079371500919,-0.015969365811282513
635a8325-73b2-495f-9abf-a2c6b617f5ad,7,1767701133337,-3.426,6.4890003,-6.135,-0.00385,-0.0686125,-0.0748,-0.1628313064575195,0.3724122941493988,-0.2539735412597661,15.4210861,73.9811964,0.39071375,0.4792781143097472,0.0,0.10157528073429087,0.009106915273131662
635a8325-73b2-495f-9abf-a2c6b617f5ad,7,1767701133348,-3.426,6.4890003,-6.135,-0.00385,-0.0686125,-0.0748,-0.1628313064575195,0.3724122941493988,-0.2539735412597661,15.4210861,73.9811964,0.39071375,0.4792781143097472,0.0,0.10157528073429087,-0.001261034274819762
635a8325-73b2-495f-9abf-a2c6b617f5ad,7,1767701133359,-3.426,6.4890003,-6.135,-0.00385,-0.0686125,-0.0748,-0.1628313064575195,0.3724122941493988,-0.2539735412597661,15.4210861,73.9811964,0.39071375,0.4792781143097472,0.0,0.10157528073429087,-0.01120700513619111
635a8325-73b2-495f-9abf-a2c6b617f5ad,7,1767701133370,-3.31095,6.5470505,-6.0589504,-0.01705,-0.0710875,-0.1304875,-0.2244439125061035,0.2214816212654113,-0.3001237487792974,15.4210861,73.9811964,0.39071375,0.4353199317751731,0.0,0.14956979244653648,0.027694416152672523
635a8325-73b2-495f-9abf-a2c6b617f5ad,7,1767701133381,-3.31095,6.5470505,-6.0589504,-0.01705,-0.0710875,-0.1304875,-0.2244439125061035,0.2214816212654113,-0.3001237487792974,15.4210861,73.9811964,0.39071375,0.4353199317751731,0.0,0.14956979244653648,0.019811434683629683
635a8325-73b2-495f-9abf-a2c6b617f5ad,7,1767701133392,-3.31095,6.5470505,-6.0589504,-0.01705,-0.0710875,-0.1304875,-0.2244439125061035,0.2214816212654113,-0.3001237487792974,15.4210861,73.9811964,0.39071375,0.4353199317751731,0.0,0.14956979244653648,0.013381115409893491
635a8325-73b2-495f-9abf-a2c6b617f5ad,7,1767701133403,-3.2340002,6.642,-6.0199504,-0.0185625,-0.0735625,-0.142175,-0.2854094505310058,0.0834493637084961,-0.2849641418457036,15.4210861,73.9811964,0.39071375,0.4118578794846856,0.0,0.16115129052384283,0.020091516963454698
635a8325-73b2-495f-9abf-a2c6b617f5ad,7,1767701133413,-3.2730002,6.642,-5.9820004,-0.0198,-0.069299996,-0.1299375,-0.3056831359863281,0.0861061513423919,-0.2962117767333989,15.4210861,73.9811964,0.39071375,0.4342785576113467,0.0,0.1485876285289257,0.004188870168862831
635a8325-73b2-495f-9abf-a2c6b617f5ad,7,1767701133424,-3.2730002,6.642,-5.9820004,-0.0198,-0.069299996,-0.1299375,-0.3056831359863281,0.0861061513423919,-0.2962117767333989,15.4210861,73.9811964,0.39071375,0.4342785576113467,0.0,0.1485876285289257,0.002246424666559502
635a8325-73b2-495f-9abf-a2c6b617f5ad,7,1767701133435,-3.34905,6.7000504,-6.0010505,-0.04235,-0.08195,-0.0891,-0.3249917030334472,0.0993201732635498,-0.2181296920776372,15.4210861,73.9811964,0.39071375,0.4038126625349517,0.0,0.12825028265076066,-0.01883808757234657
635a8325-73b2-495f-9abf-a2c6b617f5ad,7,1767701133445,-3.34905,6.7000504,-6.0010505,-0.04235,-0.08195,-0.0891,-0.3249917030334472,0.0993201732635498,-0.2181296920776372,15.4210861,73.9811964,0.39071375,0.4038126625349517,0.0,0.12825028265076066,-0.018605405220621186
635a8325-73b2-495f-9abf-a2c6b617f5ad,8,1767701133456,-3.34905,6.7000504,-6.0010505,-0.04235,-0.08195,-0.0891,-0.3249917030334472,0.0993201732635498,-0.2181296920776372,15.4210863,73.9811979,0.12180148,0.4038126625349517,0.0,0.12825028265076066,-0.017572712835531096
635a8325-73b2-495f-9abf-a2c6b617f5ad,8,1767701133467,-3.3679502,6.7000504,-6.078,-0.05775,-0.1084875,-0.049775,-0.2466011047363281,0.0835070610046386,-0.1607480621337895,15.4210863,73.9811979,0.12180148,0.3059827994750335,0.0,0.13259770277516122,-0.011498861372920834
635a8325-73b2-495f-9abf-a2c6b617f5ad,8,1767701133478,-3.3679502,6.7000504,-6.078,-0.05775,-0.1084875,-0.049775,-0.2466011047363281,0.0835070610046386,-0.1607480621337895,15.4210863,73.9811979,0.12180148,0.3059827994750335,0.0,0.13259770277516122,-0.009092773511331866
635a8325-73b2-495f-9abf-a2c6b617f5ad,8,1767701133489,-3.4450502,6.5280004,-6.135,-0.0716375,-0.121275,-0.0103124995,-0.0831079483032226,0.1895358562469482,-0.2142434692382817,15.4210863,73.9811979,0.12180148,0.2978775520002968,0.0,0.14122997088857414,0.002698902850597107
635a8325-73b2-495f-9abf-a2c6b617f5ad,8,1767701133499,-3.4450502,6.5280004,-6.135,-0.0716375,-0.121275,-0.0103124995,-0.0831079483032226,0.1895358562469482,-0.2142434692382817,15.4210863,73.9811979,0.12180148,0.2978775520002968,0.0,0.14122997088857414,0.006746229002353719
635a8325-73b2-495f-9abf-a2c6b617f5ad,8,1767701133510,-3.4639502,6.5080504,-6.0199504,-0.079475,-0.1040875,-0.0086624995,-0.1328973770141601,0.2035655975341797,-0.2950425720214849,15.4210863,73.9811979,0.12180148,0.3822967232683855,0.0,0.13124603681192626,0.0018486465712562025
635a8325-73b2-495f-9abf-a2c6b617f5ad,8,1767701133521,-3.4639502,6.5080504,-6.0199504,-0.079475,-0.1040875,-0.0086624995,-0.1328973770141601,0.2035655975341797,-0.2950425720214849,15.4210863,73.9811979,0.12180148,0.3822967232683855,0.0,0.13124603681192626,0.008087401576785133
635a8325-73b2-495f-9abf-a2c6b617f5ad,8,1767701133531,-3.4830003,6.4129505,-6.135,-0.08305,-0.0867625,-0.0070125,0.0360713005065918,0.2296221852302551,-0.2789216613769536,15.4210863,73.9811979,0.12180148,0.3630768236274995,0.0,0.12030880708618136,0.0045623200177549676
635a8325-73b2-495f-9abf-a2c6b617f5ad,8,1767701133542,-3.4830003,6.4129505,-6.135,-0.08305,-0.0867625,-0.0070125,0.0360713005065918,0.2296221852302551,-0.2789216613769536,15.4210863,73.9811979,0.12180148,0.3630768236274995,0.0,0.12030880708618136,0.013030855920630207
635a8325-73b2-495f-9abf-a2c6b617f5ad,8,1767701133553,-3.5020502,6.4510503,-6.135,-0.0738375,-0.056925,-0.012375,0.033273696899414,0.2177728414535522,-0.2459979629516606,15.4210863,73.9811979,0.12180148,0.3302228749745763,0.0,0.09405090460091278,-0.003985531252663337
635a8325-73b2-495f-9abf-a2c6b617f5ad,8,1767701133564,-3.5020502,6.4510503,-6.135,-0.0738375,-0.056925,-0.012375,0.033273696899414,0.2177728414535522,-0.2459979629516606,15.4210863,73.9811979,0.12180148,0.3302228749745763,0.0,0.09405090460091278,0.0055736622350423485
635a8325-73b2-495f-9abf-a2c6b617f5ad,8,1767701133575,-3.5020502,6.4510503,-6.135,-0.0738375,-0.056925,-0.012375,0.033273696899414,0.2177728414535522,-0.2459979629516606,15.4210863,73.9811979,0.12180148,0.3302228749745763,0.0,0.09405090460091278,0.01484330844264162
635a8325-73b2-495f-9abf-a2c6b617f5ad,8,1767701133585,-3.55995,6.3360004,-6.4219503,-0.0708125,-0.0292875,-0.0088,0.3241128921508789,0.2742646932601928,-0.1208654022216801,15.4210863,73.9811979,0.12180148,0.4414507155750498,0.0,0.07713370088683676,0.006191484508901229
635a8325-73b2-495f-9abf-a2c6b617f5ad,8,1767701133596,-3.55995,6.3360004,-6.4219503,-0.0708125,-0.0292875,-0.0088,0.3241128921508789,0.2742646932601928,-0.1208654022216801,15.4210863,73.9811979,0.12180148,0.4414507155750498,0.0,0.07713370088683676,0.01269476104644722
635a8325-73b2-495f-9abf-a2c6b617f5ad,8,1767701133607,-3.732,6.20205,-6.4219503,-0.0391875,-0.0059125,-0.02585,0.3729181289672851,0.4658927321434021,-0.1519151306152348,15.4210863,73.9811979,0.12180148,0.6157939393062816,0.0,0.04731638524338054,-0.013105648125799988
635a8325-73b2-495f-9abf-a2c6b617f5ad,8,1767701133618,-3.732,6.20205,-6.4219503,-0.0391875,-0.0059125,-0.02585,0.3729181289672851,0.4658927321434021,-0.1519151306152348,15.4210863,73.9811979,0.12180148,0.6157939393062816,0.0,0.04731638524338054,-0.012186730602322109
635a8325-73b2-495f-9abf-a2c6b617f5ad,8,1767701133629,-3.732,6.20205,-6.4800005,-0.0111375,0.0017875,-0.047025,0.409337043762207,0.4413242936134338,-0.1135392761230473,15.4210863,73.9811979,0.12180148,0.6125480509739011,0.0,0.04835896698131588,-0.013751644251155892
635a8325-73b2-495f-9abf-a2c6b617f5ad,8,1767701133640,-3.732,6.20205,-6.4800005,-0.0111375,0.0017875,-0.047025,0.409337043762207,0.4413242936134338,-0.1135392761230473,15.4210863,73.9811979,0.12180148,0.6125480509739011,0.0,0.04835896698131588,-0.02007903618838363
635a8325-73b2-495f-9abf-a2c6b617f5ad,8,1767701133650,-3.732,6.20205,-6.6139503,0.0356125,0.0182875,-0.064075,0.4812459945678711,0.3994419574737549,-0.0249887084960942,15.4210863,73.9811979,0.12180148,0.6259201388598926,0.0,0.07555321593089204,-0.002865550938807781
635a8325-73b2-495f-9abf-a2c6b617f5ad,8,1767701133661,-3.732,6.20205,-6.6139503,0.0356125,0.0182875,-0.064075,0.4812459945678711,0.3994419574737549,-0.0249887084960942,15.4210863,73.9811979,0.12180148,0.6259201388598926,0.0,0.07555321593089204,-0.01617877542372147
635a8325-73b2-495f-9abf-a2c6b617f5ad,8,1767701133672,-3.732,6.20205,-6.6139503,0.0356125,0.0182875,-0.064075,0.4812459945678711,0.3994419574737549,-0.0249887084960942,15.4210863,73.9811979,0.12180148,0.6259201388598926,0.0,0.07555321593089204,-0.032284764057636646
635a8325-73b2-495f-9abf-a2c6b617f5ad,8,1767701133683,-3.5410502,6.2590504,-6.537,0.10505,0.0039875,-0.1243,0.3880505561828613,0.1869567036628723,-0.101157722473145,15.4210863,73.9811979,0.12180148,0.4424578262549651,0.0,0.1627940191046649,0.036755690230584635
635a8325-73b2-495f-9abf-a2c6b617f5ad,8,1767701133693,-3.5410502,6.2590504,-6.537,0.10505,0.0039875,-0.1243,0.3880505561828613,0.1869567036628723,-0.101157722473145,15.4210863,73.9811979,0.12180148,0.4424578262549651,0.0,0.1627940191046649,0.01724302807807237
635a8325-73b2-495f-9abf-a2c6b617f5ad,8,1767701133704,-3.3300002,6.183,-6.537,0.14025,-0.0081124995,-0.1318625,0.4376544952392578,-0.0025355219841003,-0.2256770706176762,15.4210863,73.9811979,0.12180148,0.4924205786494275,0.0,0.19267484022151804,0.02708639221656929
635a8325-73b2-495f-9abf-a2c6b617f5ad,8,1767701133715,-3.3300002,6.183,-6.537,0.14025,-0.0081124995,-0.1318625,0.4376544952392578,-0.0025355219841003,-0.2256770706176762,15.4210863,73.9811979,0.12180148,0.4924205786494275,0.0,0.19267484022151804,0.007247926049808192
635a8325-73b2-495f-9abf-a2c6b617f5ad,8,1767701133726,-3.4830003,5.991,-6.576,0.1868625,-0.00275,-0.1144,0.5130791664123535,0.1760519742965698,-0.2720285034179692,15.4210863,73.9811979,0.12180148,0.6068311423550506,0.0,0.2191175857986985,0.014660976636289425
635a8325-73b2-495f-9abf-a2c6b617f5ad,8,1767701133737,-3.4830003,5.991,-6.576,0.1868625,-0.00275,-0.1144,0.5130791664123535,0.1760519742965698,-0.2720285034179692,15.4210863,73.9811979,0.12180148,0.6068311423550506,0.0,0.2191175857986985,-0.00308948463008417
635a8325-73b2-495f-9abf-a2c6b617f5ad,8,1767701133747,-3.5410502,5.8759503,-6.6330004,0.2171125,-0.0037125,-0.0985875,0.5619964599609375,0.2352843880653381,-0.2867990112304692,15.4210863,73.9811979,0.12180148,0.6733887711557723,0.0,0.23847665602475646,0.0001303477352463305
635a8325-73b2-495f-9abf-a2c6b617f5ad,8,1767701133758,-3.5410502,5.8759503,-6.6330004,0.2171125,-0.0037125,-0.0985875,0.5619964599609375,0.2352843880653381,-0.2867990112304692,15.4210863,73.9811979,0.12180148,0.6733887711557723,0.0,0.23847665602475646,-0.014180630238766201
635a8325-73b2-495f-9abf-a2c6b617f5ad,8,1767701133769,-3.5790002,5.8570504,-6.6709504,0.2506625,-0.0034375,-0.083875,0.5321731567382812,0.2408391833305359,-0.256222305297852,15.4210863,73.9811979,0.12180148,0.6378570770260783,0.0,0.2643454575692573,-0.0006534224918825754
635a8325-73b2-495f-9abf-a2c6b617f5ad,8,1767701133780,-3.5790002,5.8570504,-6.6709504,0.2506625,-0.0034375,-0.083875,0.5321731567382812,0.2408391833305359,-0.256222305297852,15.4210863,73.9811979,0.12180148,0.6378570770260783,0.0,0.2643454575692573,-0.01091514295974671
635a8325-73b2-495f-9abf-a2c6b617f5ad,8,1767701133791,-3.5790002,5.8570504,-6.6709504,0.2506625,-0.0034375,-0.083875,0.5321731567382812,0.2408391833305359,-0.256222305297852,15.4210863,73.9811979,0.12180148,0.6378570770260783,0.0,0.2643454575692573,-0.018975325007035353
635a8325-73b2-495f-9abf-a2c6b617f5ad,8,1767701133801,-3.55995,5.991,-6.49905,0.2842125,-0.007425,-0.05995,0.25872802734375,0.1582120656967163,-0.2857690429687505,15.4210863,73.9811979,0.12180148,0.4166955672724224,0.0,0.2905613158719687,0.0015445460008253634
635a8325-73b2-495f-9abf-a2c6b617f5ad,8,1767701133812,-3.55995,5.991,-6.49905,0.2842125,-0.007425,-0.05995,0.25872802734375,0.1582120656967163,-0.2857690429687505,15.4210863,73.9811979,0.12180148,0.4166955672724224,0.0,0.2905613158719687,-0.0015718954284503132
635a8325-73b2-495f-9abf-a2c6b617f5ad,8,1767701133823,-3.4450502,6.0679502,-6.3460503,0.29205,-0.0180125,-0.0435875,0.0579237937927246,0.0158237218856811,-0.3782907104492192,15.4210863,73.9811979,0.12180148,0.3830266539992125,0.0,0.2958336066313291,0.0034221903148184195
635a8325-73b2-495f-9abf-a2c6b617f5ad,8,1767701133833,-3.4450502,6.0679502,-6.3460503,0.29205,-0.0180125,-0.0435875,0.0579237937927246,0.0158237218856811,-0.3782907104492192,15.4210863,73.9811979,0.12180148,0.3830266539992125,0.0,0.2958336066313291,0.006254276399703097
635a8325-73b2-495f-9abf-a2c6b617f5ad,8,1767701133844,-3.38805,6.0679502,-6.25005,0.2657875,-0.051975,-0.0059125,-0.0605664253234863,-0.048143446445465,-0.4635558700561528,15.4210863,73.9811979,0.12180148,0.4699682201762473,0.0,0.2708862370765632,-0.012512325720329932
635a8325-73b2-495f-9abf-a2c6b617f5ad,8,1767701133855,-3.38805,6.0679502,-6.25005,0.2657875,-0.051975,-0.0059125,-0.0605664253234863,-0.048143446445465,-0.4635558700561528,15.4210863,73.9811979,0.12180148,0.4699682201762473,0.0,0.2708862370765632,-0.0028361059324411497
635a8325-73b2-495f-9abf-a2c6b617f5ad,8,1767701133866,-3.4069502,6.1639504,-6.2689505,0.2369125,-0.0671,0.0174625,-0.1607656478881836,-0.0894378423690795,-0.3830428695678716,15.4210863,73.9811979,0.12180148,0.4249312428091552,0.0,0.24684991708019674,-0.013706490343680279
635a8325-73b2-495f-9abf-a2c6b617f5ad,8,1767701133877,-3.4069502,6.1639504,-6.2689505,0.2369125,-0.0671,0.0174625,-0.1607656478881836,-0.0894378423690795,-0.3830428695678716,15.4210863,73.9811979,0.12180148,0.4249312428091552,0.0,0.24684991708019674,0.002736214338932121
635a8325-73b2-495f-9abf-a2c6b617f5ad,8,1767701133887,-3.4069502,6.1639504,-6.2689505,0.2369125,-0.0671,0.0174625,-0.1607656478881836,-0.0894378423690795,-0.3830428695678716,15.4210863,73.9811979,0.12180148,0.4249312428091552,0.0,0.24684991708019674,0.021996421456656905
635a8325-73b2-495f-9abf-a2c6b617f5ad,8,1767701133898,-3.59805,6.2400002,-6.288,0.2014375,-0.0572,0.0422125,-0.2695865631103515,0.035926342010498,-0.2523561096191411,15.4210863,73.9811979,0.12180148,0.37101377753665,0.0,0.2136136736318628,0.010117423666087777
635a8325-73b2-495f-9abf-a2c6b617f5ad,8,1767701133909,-3.59805,6.2400002,-6.288,0.2014375,-0.0572,0.0422125,-0.2695865631103515,0.035926342010498,-0.2523561096191411,15.4210863,73.9811979,0.12180148,0.37101377753665,0.0,0.2136136736318628,0.032605972017992445
635a8325-73b2-495f-9abf-a2c6b617f5ad,8,1767701133920,-3.6750002,6.4129505,-6.1930504,0.1287,-0.042625,0.0704,-0.4878363609313965,0.0395362973213195,-0.1795335388183598,15.4210863,73.9811979,0.12180148,0.521324971024131,0.0,0.15276367573804972,-0.005785336681084849
635a8325-73b2-495f-9abf-a2c6b617f5ad,8,1767701133930,-3.6750002,6.4129505,-6.1930504,0.1287,-0.042625,0.0704,-0.4878363609313965,0.0395362973213195,-0.1795335388183598,15.4210863,73.9811979,0.12180148,0.521324971024131,0.0,0.15276367573804972,0.01536922624507857
635a8325-73b2-495f-9abf-a2c6b617f5ad,8,1767701133941,-3.6750002,6.66195,-6.2119503,0.080575,-0.0506,0.0603625,-0.6269145011901855,-0.058755338191986,-0.0080066299438481,15.4210863,73.9811979,0.12180148,0.6297127025014276,0.0,0.1126779571666526,-0.006145106697765794
635a8325-73b2-495f-9abf-a2c6b617f5ad,8,1767701133952,-3.6750002,6.66195,-6.2119503,0.080575,-0.0506,0.0603625,-0.6269145011901855,-0.058755338191986,-0.0080066299438481,15.4210863,73.9811979,0.12180148,0.6297127025014276,0.0,0.1126779571666526,0.008682491516725965
635a8325-73b2-495f-9abf-a2c6b617f5ad,8,1767701133963,-3.5020502,6.7000504,-6.5179505,0.0077,-0.055275,0.044,-0.3882594108581543,-0.2651494741439819,0.160840454101562,15.4210863,73.9811979,0.12180148,0.4969097155765299,0.0,0.07106768340814269,-0.022762473085556963
635a8325-73b2-495f-9abf-a2c6b617f5ad,8,1767701133973,-3.5020502,6.7000504,-6.5179505,0.0077,-0.055275,0.044,-0.3882594108581543,-0.2651494741439819,0.160840454101562,15.4210863,73.9811979,0.12180148,0.4969097155765299,0.0,0.07106768340814269,-0.017827647474215946
635a8325-73b2-495f-9abf-a2c6b617f5ad,8,1767701133984,-3.5020502,6.7000504,-6.5179505,0.0077,-0.055275,0.044,-0.3882594108581543,-0.2651494741439819,0.160840454101562,15.4210863,73.9811979,0.12180148,0.4969097155765299,0.0,0.07106768340814269,-0.018263543797240763
635a8325-73b2-495f-9abf-a2c6b617f5ad,8,1767701133995,-3.31095,6.66195,-6.288,-0.049775,-0.041249998,0.0416625,-0.4687418937683105,-0.3818630576133728,-0.0879932022094731,15.4210863,73.9811979,0.12180148,0.6109673979668747,0.0,0.07690823666064646,-0.01790671807995307
635a8325-73b2-495f-9abf-a2c6b617f5ad,8,1767701134006,-3.31095,6.66195,-6.288,-0.049775,-0.041249998,0.0416625,-0.4687418937683105,-0.3818630576133728,-0.0879932022094731,15.4210863,73.9811979,0.12180148,0.6109673979668747,0.0,0.07690823666064646,-0.027666334791903526
635a8325-73b2-495f-9abf-a2c6b617f5ad,8,1767701134016,-3.177,6.4890003,-6.1740003,-0.1189375,-0.0154,0.031625,-0.3842849731445312,-0.4104132056236267,-0.3230271911621099,15.4210863,73.9811979,0.12180148,0.648429260725514,0.0,0.12402995416934572,0.006577212983462455
635a8325-73b2-495f-9abf-a2c6b617f5ad,8,1767701134027,-3.177,6.4890003,-6.1740003,-0.1189375,-0.0154,0.031625,-0.3842849731445312,-0.4104132056236267,-0.3230271911621099,15.4210863,73.9811979,0.12180148,0.648429260725514,0.0,0.12402995416934572,-0.007983594339064695
635a8325-73b2-495f-9abf-a2c6b617f5ad,8,1767701134038,-3.21495,6.22095,-6.3079505,-0.1808125,0.004125,0.0325875,-0.0844321250915527,-0.2751677632331848,-0.3896213150024419,15.4210863,73.9811979,0.12180148,0.4844077319515675,0.0,0.18377192641287732,0.037091810813998566
635a8325-73b2-495f-9abf-a2c6b617f5ad,8,1767701134049,-3.21495,6.22095,-6.3079505,-0.1808125,0.004125,0.0325875,-0.0844321250915527,-0.2751677632331848,-0.3896213150024419,15.4210863,73.9811979,0.12180148,0.4844077319515675,0.0,0.18377192641287732,0.02388533075747117
635a8325-73b2-495f-9abf-a2c6b617f5ad,8,1767701134059,-3.31095,6.0870004,-6.5179505,-0.186725,0.0111375,0.036575,0.1748371124267578,-0.1453553438186645,-0.2996907806396489,15.4210863,73.9811979,0.12180148,0.3761791539396769,0.0,0.19059905602140323,0.02037240493071961
635a8325-73b2-495f-9abf-a2c6b617f5ad,8,1767701134070,-3.31095,6.0870004,-6.5179505,-0.186725,0.0111375,0.036575,0.1748371124267578,-0.1453553438186645,-0.2996907806396489,15.4210863,73.9811979,0.12180148,0.3761791539396769,0.0,0.19059905602140323,0.014017185909492502
635a8325-73b2-495f-9abf-a2c6b617f5ad,8,1767701134081,-3.4069502,6.183,-6.4800005,-0.149875,0.0504625,0.05115,0.1024551391601562,-0.0721684098243713,-0.228167114257813,15.4210863,73.9811979,0.12180148,0.2603182032544848,0.0,0.16620860997929682,-0.012008691881720159
635a8325-73b2-495f-9abf-a2c6b617f5ad,8,1767701134092,-3.4069502,6.183,-6.4800005,-0.149875,0.0504625,0.05115,0.1024551391601562,-0.0721684098243713,-0.228167114257813,15.4210863,73.9811979,0.12180148,0.2603182032544848,0.0,0.16620860997929682,-0.008627832272532492
635a8325-73b2-495f-9abf-a2c6b617f5ad,8,1767701134102,-3.4069502,6.183,-6.4800005,-0.149875,0.0504625,0.05115,0.1024551391601562,-0.0721684098243713,-0.228167114257813,15.4210863,73.9811979,0.12180148,0.2603182032544848,0.0,0.16620860997929682,-0.00038480965264300584
635a8325-73b2-495f-9abf-a2c6b617f5ad,8,1767701134113,-3.6750002,6.2400002,-6.3079505,-0.1233375,0.0496375,0.0468875,-0.080322265625,0.191034734249115,-0.2084107971191411,15.4210863,73.9811979,0.12180148,0.2939064415772455,0.0,0.14097679939887273,-0.013088030837454136
635a8325-73b2-495f-9abf-a2c6b617f5ad,8,1767701134124,-3.6750002,6.2400002,-6.3079505,-0.1233375,0.0496375,0.0468875,-0.080322265625,0.191034734249115,-0.2084107971191411,15.4210863,73.9811979,0.12180148,0.2939064415772455,0.0,0.14097679939887273,0.00278968815429069
635a8325-73b2-495f-9abf-a2c6b617f5ad,8,1767701134134,-3.7710001,6.2400002,-6.288,-0.0988625,0.0389125,0.0303875,-0.0863184928894043,0.2943094968795776,-0.1869569396972661,15.4210863,73.9811979,0.12180148,0.3591961295297813,0.0,0.11050509815727962,-0.00966232845684462
635a8325-73b2-495f-9abf-a2c6b617f5ad,8,1767701134145,-3.7710001,6.2400002,-6.288,-0.0988625,0.0389125,0.0303875,-0.0863184928894043,0.2943094968795776,-0.1869569396972661,15.4210863,73.9811979,0.12180148,0.3591961295297813,0.0,0.11050509815727962,0.009128101262564829
635a8325-73b2-495f-9abf-a2c6b617f5ad,8,1767701134156,-3.732,6.1060505,-6.3079505,-0.0716375,0.034649998,0.011275,0.0405049324035644,0.3151547908782959,-0.2757993316650395,15.4210863,73.9811979,0.12180148,0.4207475051731647,0.0,0.08037213069621836,-0.0028638333340846897
635a8325-73b2-495f-9abf-a2c6b617f5ad,8,1767701134166,-3.732,6.1060505,-6.3079505,-0.0716375,0.034649998,0.011275,0.0405049324035644,0.3151547908782959,-0.2757993316650395,15.4210863,73.9811979,0.12180148,0.4207475051731647,0.0,0.08037213069621836,0.013273567691045523
635a8325-73b2-495f-9abf-a2c6b617f5ad,8,1767701134177,-3.7129502,6.0870004,-6.4420505,-0.047025,0.013062499,0.0022,0.1634211540222168,0.2918679118156433,-0.2065778350830083,15.4210863,73.9811979,0.12180148,0.393151056818063,0.0,0.048855086788634414,-0.005291711981487636
635a8325-73b2-495f-9abf-a2c6b617f5ad,8,1767701134188,-3.7129502,6.0870004,-6.4420505,-0.047025,0.013062499,0.0022,0.1634211540222168,0.2918679118156433,-0.2065778350830083,15.4210863,73.9811979,0.12180148,0.393151056818063,0.0,0.048855086788634414,0.0035549973694133613
635a8325-73b2-495f-9abf-a2c6b617f5ad,8,1767701134199,-3.7129502,6.0870004,-6.4420505,-0.047025,0.013062499,0.0022,0.1634211540222168,0.2918679118156433,-0.2065778350830083,15.4210863,73.9811979,0.12180148,0.393151056818063,0.0,0.048855086788634414,0.007707702825160235
635a8325-73b2-495f-9abf-a2c6b617f5ad,8,1767701134209,-3.6750002,6.1639504,-6.4219503,-0.0154,-0.003575,0.0034375,0.1091399192810058,0.2270827889442443,-0.183062133789063,15.4210863,73.9811979,0.12180148,0.3114319505811269,0.0,0.016178906985640285,-0.02572803553594541
635a8325-73b2-495f-9abf-a2c6b617f5ad,8,1767701134221,-3.6750002,6.1639504,-6.4219503,-0.0154,-0.003575,0.0034375,0.1091399192810058,0.2270827889442443,-0.183062133789063,15.4210863,73.9811979,0.12180148,0.3114319505811269,0.0,0.016178906985640285,-0.031238193144441827
635a8325-73b2-495f-9abf-a2c6b617f5ad,8,1767701134232,-3.7129502,6.2790003,-6.3460503,0.0567875,-0.015262499,-0.025575,-0.0252857208251953,0.2206329107284546,-0.1438270187377934,15.4210863,73.9811979,0.12180148,0.2645835601339613,0.0,0.0641236669021275,0.006964848595715489
635a8325-73b2-495f-9abf-a2c6b617f5ad,8,1767701134242,-3.7129502,6.2790003,-6.3460503,0.0567875,-0.015262499,-0.025575,-0.0252857208251953,0.2206329107284546,-0.1438270187377934,15.4210863,73.9811979,0.12180148,0.2645835601339613,0.0,0.0641236669021275,-0.00618408856637038
635a8325-73b2-495f-9abf-a2c6b617f5ad,8,1767701134253,-3.7129502,6.2590504,-6.36495,0.0928125,-0.044,-0.026675,-0.0081243515014648,0.2113488316535949,-0.1441026306152348,15.4210863,73.9811979,0.12180148,0.2559294861458714,0.0,0.10612123152908659,0.020310874538325478
635a8325-73b2-495f-9abf-a2c6b617f5ad,8,1767701134264,-3.7129502,6.2590504,-6.36495,0.0928125,-0.044,-0.026675,-0.0081243515014648,0.2113488316535949,-0.1441026306152348,15.4210863,73.9811979,0.12180148,0.2559294861458714,0.0,0.10612123152908659,0.0036454935455919285
635a8325-73b2-495f-9abf-a2c6b617f5ad,8,1767701134274,-3.69405,6.183,-6.288,0.1040875,-0.086075,-0.0460625,-0.0277776718139648,0.2129108905792236,-0.2513204193115239,15.4210863,73.9811979,0.12180148,0.3305519619387588,0.0,0.1427055261281076,0.023631947083808336
635a8325-73b2-495f-9abf-a2c6b617f5ad,8,1767701134285,-3.69405,6.183,-6.288,0.1040875,-0.086075,-0.0460625,-0.0277776718139648,0.2129108905792236,-0.2513204193115239,15.4210863,73.9811979,0.12180148,0.3305519619387588,0.0,0.1427055261281076,0.00827726808226304
635a8325-73b2-495f-9abf-a2c6b617f5ad,8,1767701134296,-3.69405,6.183,-6.288,0.1040875,-0.086075,-0.0460625,-0.0277776718139648,0.2129108905792236,-0.2513204193115239,15.4210863,73.9811979,0.12180148,0.3305519619387588,0.0,0.1427055261281076,-0.0047954144910952205
635a8325-73b2-495f-9abf-a2c6b617f5ad,8,1767701134307,-3.65595,6.183,-6.288,0.094875,-0.10725,-0.0716375,-0.0348963737487793,0.1502136588096618,-0.2648110961914067,15.4210863,73.9811979,0.12180148,0.3064421917097815,0.0,0.16011170953821585,0.002657803283503149
635a8325-73b2-495f-9abf-a2c6b617f5ad,8,1767701134317,-3.65595,6.183,-6.288,0.094875,-0.10725,-0.0716375,-0.0348963737487793,0.1502136588096618,-0.2648110961914067,15.4210863,73.9811979,0.12180148,0.3064421917097815,0.0,0.16011170953821585,-0.0035826367429726224
635a8325-73b2-495f-9abf-a2c6b617f5ad,8,1767701134328,-3.7129502,6.1450505,-6.36495,0.07315,-0.1084875,-0.0884125,0.0240578651428222,0.171366810798645,-0.2167564010620122,15.4210863,73.9811979,0.12180148,0.2773602388949878,0.0,0.15791526307643602,-0.007982323233582174
635a8325-73b2-495f-9abf-a2c6b617f5ad,8,1767701134339,-3.7129502,6.1450505,-6.36495,0.07315,-0.1084875,-0.0884125,0.0240578651428222,0.171366810798645,-0.2167564010620122,15.4210863,73.9811979,0.12180148,0.2773602388949878,0.0,0.15791526307643602,-0.006096423152218777
635a8325-73b2-495f-9abf-a2c6b617f5ad,8,1767701134349,-3.6750002,6.2400002,-6.288,0.0339625,-0.0779625,-0.119625,-0.0938038825988769,0.0721720457077026,-0.2199941253662114,15.4210863,73.9811979,0.12180148,0.249810703869756,0.0,0.14677105790141326,-0.01147537917013121
635a8325-73b2-495f-9abf-a2c6b617f5ad,8,1767701134360,-3.6750002,6.2400002,-6.288,0.0339625,-0.0779625,-0.119625,-0.0938038825988769,0.0721720457077026,-0.2199941253662114,15.4210863,73.9811979,0.12180148,0.249810703869756,0.0,0.14677105790141326,-0.0022788689474397207
635a8325-73b2-495f-9abf-a2c6b617f5ad,8,1767701134371,-3.5020502,6.3360004,-6.2310004,0.0133375,-0.058025,-0.111375,-0.1664967536926269,-0.1469359397888183,-0.2608991241455083,15.4210863,73.9811979,0.12180148,0.3426071983652706,0.0,0.12629006356895225,-0.01078523147292324
635a8325-73b2-495f-9abf-a2c6b617f5ad,8,1767701134381,-3.5020502,6.3360004,-6.2310004,0.0133375,-0.058025,-0.111375,-0.1664967536926269,-0.1469359397888183,-0.2608991241455083,15.4210863,73.9811979,0.12180148,0.3426071983652706,0.0,0.12629006356895225,0.0031506798191509836
635a8325-73b2-495f-9abf-a2c6b617f5ad,8,1767701134392,-3.5020502,6.3360004,-6.2310004,0.0133375,-0.058025,-0.111375,-0.1664967536926269,-0.1469359397888183,-0.2608991241455083,15.4210863,73.9811979,0.12180148,0.3426071983652706,0.0,0.12629006356895225,0.018115914832250352
635a8325-73b2-495f-9abf-a2c6b617f5ad,8,1767701134403,-3.5020502,6.3360004,-6.2310004,0.0133375,-0.058025,-0.111375,-0.1664967536926269,-0.1469359397888183,-0.2608991241455083,15.4210863,73.9811979,0.12180148,0.3426071983652706,0.0,0.12629006356895225,0.0331187210600693
635a8325-73b2-495f-9abf-a2c6b617f5ad,8,1767701134414,-3.3679502,6.2790003,-6.2689505,-0.003575,-0.0391875,-0.0774125,-0.0751008987426757,-0.2740054130554199,-0.3238015747070317,15.4210863,73.9811979,0.12180148,0.4307743854483253,0.0,0.08683971405699123,0.007718281125870224
635a8325-73b2-495f-9abf-a2c6b617f5ad,8,1767701134424,-3.3679502,6.2590504,-6.25005,-0.0116875,-0.01925,-0.0468875,-0.0721516609191894,-0.2762524485588074,-0.3495336151123052,15.4210863,73.9811979,0.12180148,0.4513258530170981,0.0,0.052015361312789124,-0.014933648106522273
635a8325-73b2-495f-9abf-a2c6b617f5ad,8,1767701134435,-3.3679502,6.2590504,-6.25005,-0.0116875,-0.01925,-0.0468875,-0.0721516609191894,-0.2762524485588074,-0.3495336151123052,15.4210863,73.9811979,0.12180148,0.4513258530170981,0.0,0.052015361312789124,-0.005433333144551938
635a8325-73b2-495f-9abf-a2c6b617f5ad,9,1767701134446,-3.5410502,6.3360004,-6.288,-0.025575,0.013612499,-0.00715,-0.1194677352905273,-0.1610352396965026,-0.2088170623779301,15.4210872,73.9811992,0.08368673,0.2894986247630651,0.0,0.029841301144973572,-0.02138582808267341
635a8325-73b2-495f-9abf-a2c6b617f5ad,9,1767701134456,-3.5410502,6.3360004,-6.288,-0.025575,0.013612499,-0.00715,-0.1194677352905273,-0.1610352396965026,-0.2088170623779301,15.4210872,73.9811992,0.08368673,0.2894986247630651,0.0,0.029841301144973572,-0.018815912486172138
635a8325-73b2-495f-9abf-a2c6b617f5ad,9,1767701134467,-3.426,6.46995,-6.288,-0.0457875,0.0284625,0.016775,-0.1755127906799316,-0.310555100440979,-0.1658578491210942,15.4210872,73.9811992,0.08368673,0.3933929793695354,0.0,0.05646246264112113,0.006612403660582938
635a8325-73b2-495f-9abf-a2c6b617f5ad,9,1767701134477,-3.426,6.46995,-6.288,-0.0457875,0.0284625,0.016775,-0.1755127906799316,-0.310555100440979,-0.1658578491210942,15.4210872,73.9811992,0.08368673,0.3933929793695354,0.0,0.05646246264112113,0.0018142904348181935
635a8325-73b2-495f-9abf-a2c6b617f5ad,9,1767701134488,-3.3300002,6.5280004,-6.2310004,-0.0573375,0.0369875,0.027775,-0.2224907875061035,-0.393021821975708,-0.2014051055908208,15.4210872,73.9811992,0.08368673,0.4945020926469785,0.0,0.07366895334874794,0.01102818852333148
635a8325-73b2-495f-9abf-a2c6b617f5ad,9,1767701134499,-3.3300002,6.5280004,-6.2310004,-0.0573375,0.0369875,0.027775,-0.2224907875061035,-0.393021821975708,-0.2014051055908208,15.4210872,73.9811992,0.08368673,0.4945020926469785,0.0,0.07366895334874794,0.00046950935883748675
635a8325-73b2-495f-9abf-a2c6b617f5ad,9,1767701134509,-3.3300002,6.5280004,-6.2310004,-0.0573375,0.0369875,0.027775,-0.2224907875061035,-0.393021821975708,-0.2014051055908208,15.4210872,73.9811992,0.08368673,0.4945020926469785,0.0,0.07366895334874794,-0.011861476166049812
635a8325-73b2-495f-9abf-a2c6b617f5ad,9,1767701134520,-3.3679502,6.60405,-6.1540504,-0.081125,0.0606375,0.0429,-0.315185546875,-0.3556737899780273,-0.1869493103027348,15.4210872,73.9811992,0.08368673,0.5106817193310281,0.0,0.10999355449866142,0.011255473675506023
635a8325-73b2-495f-9abf-a2c6b617f5ad,9,1767701134531,-3.3679502,6.60405,-6.1540504,-0.081125,0.0606375,0.0429,-0.315185546875,-0.3556737899780273,-0.1869493103027348,15.4210872,73.9811992,0.08368673,0.5106817193310281,0.0,0.10999355449866142,-0.0019003244918104315
635a8325-73b2-495f-9abf-a2c6b617f5ad,9,1767701134542,-3.5020502,6.5470505,-6.1930504,-0.0961125,0.0691625,0.060225,-0.2493047714233398,-0.1899758577346801,-0.1464667892456059,15.4210872,73.9811992,0.08368673,0.3459714091198692,0.0,0.13284620689918097,0.008741246762410088
635a8325-73b2-495f-9abf-a2c6b617f5ad,9,1767701134552,-3.5020502,6.5470505,-6.1930504,-0.0961125,0.0691625,0.060225,-0.2493047714233398,-0.1899758577346801,-0.1464667892456059,15.4210872,73.9811992,0.08368673,0.3459714091198692,0.0,0.13284620689918097,-0.0017305283186936462
635a8325-73b2-495f-9abf-a2c6b617f5ad,9,1767701134563,-3.5410502,6.4510503,-6.3460503,-0.1057375,0.056375,0.0836,-0.058842658996582,-0.1061668395996093,-0.0933786010742192,15.4210872,73.9811992,0.08368673,0.1531450929247666,0.0,0.14610790372615026,0.003442914637681439
635a8325-73b2-495f-9abf-a2c6b617f5ad,9,1767701134574,-3.5410502,6.4510503,-6.3460503,-0.1057375,0.056375,0.0836,-0.058842658996582,-0.1061668395996093,-0.0933786010742192,15.4210872,73.9811992,0.08368673,0.1531450929247666,0.0,0.14610790372615026,-0.0018061273581600852
635a8325-73b2-495f-9abf-a2c6b617f5ad,9,1767701134585,-3.5410502,6.4510503,-6.3460503,-0.1057375,0.056375,0.0836,-0.058842658996582,-0.1061668395996093,-0.0933786010742192,15.4210872,73.9811992,0.08368673,0.1531450929247666,0.0,0.14610790372615026,-0.003970916271406934
635a8325-73b2-495f-9abf-a2c6b617f5ad,9,1767701134596,-3.4830003,6.3739505,-6.5179505,-0.1005125,0.037675,0.102575,0.1430354118347168,-0.1172733306884765,-0.0525413131713872,15.4210872,73.9811992,0.08368673,0.1922830016389114,0.0,0.14847154241217406,-0.0006588021531863654
635a8325-73b2-495f-9abf-a2c6b617f5ad,9,1767701134607,-3.4830003,6.3739505,-6.5179505,-0.1005125,0.037675,0.102575,0.1430354118347168,-0.1172733306884765,-0.0525413131713872,15.4210872,73.9811992,0.08368673,0.1922830016389114,0.0,0.14847154241217406,0.003226756176337653
635a8325-73b2-495f-9abf-a2c6b617f5ad,9,1767701134618,-3.4450502,6.3169503,-6.5179505,-0.0796125,0.02365,0.115225,0.1970529556274414,-0.0982077717781066,-0.1039481735229497,15.4210872,73.9811992,0.08368673,0.2434745500825257,0.0,0.14203616891922283,0.0032580907427655027
635a8325-73b2-495f-9abf-a2c6b617f5ad,9,1767701134629,-3.4450502,6.3169503,-6.5179505,-0.0796125,0.02365,0.115225,0.1970529556274414,-0.0982077717781066,-0.1039481735229497,15.4210872,73.9811992,0.08368673,0.2434745500825257,0.0,0.14203616891922283,0.011807747961889393
635a8325-73b2-495f-9abf-a2c6b617f5ad,9,1767701134639,-3.4069502,6.2790003,-6.4800005,-0.0466125,0.0231,0.0991375,0.2087736129760742,-0.084411084651947,-0.1677547073364262,15.4210872,73.9811992,0.08368673,0.2808082878419577,0.0,0.1119579343436632,-0.008232215691447966
635a8325-73b2-495f-9abf-a2c6b617f5ad,9,1767701134650,-3.4069502,6.2790003,-6.4800005,-0.0466125,0.0231,0.0991375,0.2087736129760742,-0.084411084651947,-0.1677547073364262,15.4210872,73.9811992,0.08368673,0.2808082878419577,0.0,0.1119579343436632,0.0026548899746698744
635a8325-73b2-495f-9abf-a2c6b617f5ad,9,1767701134661,-3.4830003,6.22095,-6.4420505,-0.022,0.041525,0.0708125,0.2072014808654785,0.0342695713043212,-0.2033639526367192,15.4210872,73.9811992,0.08368673,0.2923418451441035,0.0,0.08498668002251882,-0.013214918360960969
635a8325-73b2-495f-9abf-a2c6b617f5ad,9,1767701134672,-3.4830003,6.22095,-6.4420505,-0.022,0.041525,0.0708125,0.2072014808654785,0.0342695713043212,-0.2033639526367192,15.4210872,73.9811992,0.08368673,0.2923418451441035,0.0,0.08498668002251882,-0.002482098563158341
635a8325-73b2-495f-9abf-a2c6b617f5ad,9,1767701134682,-3.59805,6.22095,-6.4030504,-0.0050875,0.0529375,0.045649998,0.1543550491333007,0.1599608063697815,-0.1873269653320317,15.4210872,73.9811992,0.08368673,0.2906962894636301,0.0,0.07008697368199032,-0.007511254066307865
635a8325-73b2-495f-9abf-a2c6b617f5ad,9,1767701134693,-3.59805,6.22095,-6.4030504,-0.0050875,0.0529375,0.045649998,0.1543550491333007,0.1599608063697815,-0.1873269653320317,15.4210872,73.9811992,0.08368673,0.2906962894636301,0.0,0.07008697368199032,0.0011191919270038774
635a8325-73b2-495f-9abf-a2c6b617f5ad,9,1767701134704,-3.59805,6.22095,-6.4030504,-0.0050875,0.0529375,0.045649998,0.1543550491333007,0.1599608063697815,-0.1873269653320317,15.4210872,73.9811992,0.08368673,0.2906962894636301,0.0,0.07008697368199032,0.008261264465337974
635a8325-73b2-495f-9abf-a2c6b617f5ad,9,1767701134715,-3.59805,6.3169503,-6.4030504,0.0050875,0.051975,0.0176,0.0848088264465332,0.1341217160224914,-0.1237369155883794,15.4210872,73.9811992,0.08368673,0.2012262309724598,0.0,0.05510937562021548,-0.001180182311423023
635a8325-73b2-495f-9abf-a2c6b617f5ad,9,1767701134725,-3.59805,6.3169503,-6.4030504,0.0050875,0.051975,0.0176,0.0848088264465332,0.1341217160224914,-0.1237369155883794,15.4210872,73.9811992,0.08368673,0.2012262309724598,0.0,0.05510937562021548,0.00275319895071908
635a8325-73b2-495f-9abf-a2c6b617f5ad,9,1767701134736,-3.4639502,6.4129505,-6.3079505,0.013475,0.044825,-0.0070125,-0.0297398567199707,-0.0054712891578674,-0.1707978820800786,15.4210872,73.9811992,0.08368673,0.1734540590641044,0.0,0.047328970052706615,-0.0025915812003950256
635a8325-73b2-495f-9abf-a2c6b617f5ad,9,1767701134747,-3.4639502,6.4129505,-6.3079505,0.013475,0.044825,-0.0070125,-0.0297398567199707,-0.0054712891578674,-0.1707978820800786,15.4210872,73.9811992,0.08368673,0.1734540590641044,0.0,0.047328970052706615,-0.0014716110582487709
635a8325-73b2-495f-9abf-a2c6b617f5ad,9,1767701134758,-3.4069502,6.393,-6.1740003,0.0251625,0.02805,-0.033275,-0.1113739013671875,-0.0296429395675659,-0.2925000762939458,15.4210872,73.9811992,0.08368673,0.3143869342131102,0.0,0.050271060574151406,0.001506306118214817
635a8325-73b2-495f-9abf-a2c6b617f5ad,9,1767701134768,-3.4069502,6.393,-6.1740003,0.0251625,0.02805,-0.033275,-0.1113739013671875,-0.0296429395675659,-0.2925000762939458,15.4210872,73.9811992,0.08368673,0.3143869342131102,0.0,0.050271060574151406,0.0007112936820858873
635a8325-73b2-495f-9abf-a2c6b617f5ad,9,1767701134779,-3.426,6.2980504,-6.135,0.0336875,0.02035,-0.038225,-0.0884866714477539,0.0262119770050048,-0.3742890930175786,15.4210872,73.9811992,0.08368673,0.385498746968567,0.0,0.05486456763021103,0.003929147083718993
635a8325-73b2-495f-9abf-a2c6b617f5ad,9,1767701134790,-3.426,6.2980504,-6.135,0.0336875,0.02035,-0.038225,-0.0884866714477539,0.0262119770050048,-0.3742890930175786,15.4210872,73.9811992,0.08368673,0.385498746968567,0.0,0.05486456763021103,0.0021999355044564884
635a8325-73b2-495f-9abf-a2c6b617f5ad,9,1767701134801,-3.522,6.22095,-6.2689505,0.0430375,0.013475,-0.0334125,0.0338020324707031,0.1222109198570251,-0.3027196502685552,15.4210872,73.9811992,0.08368673,0.3282030971672373,0.0,0.05612661745998951,0.0015695519187562603
635a8325-73b2-495f-9abf-a2c6b617f5ad,9,1767701134811,-3.522,6.22095,-6.2689505,0.0430375,0.013475,-0.0334125,0.0338020324707031,0.1222109198570251,-0.3027196502685552,15.4210872,73.9811992,0.08368673,0.3282030971672373,0.0,0.05612661745998951,-0.00033913122774003284
635a8325-73b2-495f-9abf-a2c6b617f5ad,9,1767701134822,-3.522,6.22095,-6.2689505,0.0430375,0.013475,-0.0334125,0.0338020324707031,0.1222109198570251,-0.3027196502685552,15.4210872,73.9811992,0.08368673,0.3282030971672373,0.0,0.05612661745998951,-0.002160328890704696
635a8325-73b2-495f-9abf-a2c6b617f5ad,9,1767701134833,-3.6750002,6.3169503,-6.36495,0.0528,0.011,-0.0363,0.004213809967041,0.203923761844635,-0.1208043670654301,15.4210872,73.9811992,0.08368673,0.2370576974944812,0.0,0.0650117681654637,0.005057344111792135
635a8325-73b2-495f-9abf-a2c6b617f5ad,9,1767701134844,-3.6750002,6.3169503,-6.36495,0.0528,0.011,-0.0363,0.004213809967041,0.203923761844635,-0.1208043670654301,15.4210872,73.9811992,0.08368673,0.2370576974944812,0.0,0.0650117681654637,0.003581829605908757
635a8325-73b2-495f-9abf-a2c6b617f5ad,9,1767701134855,-3.7510502,6.3360004,-6.3079505,0.042625,0.0138875,-0.0396,-0.0753722190856933,0.2577249407768249,-0.1180749511718755,15.4210872,73.9811992,0.08368673,0.2933339574658216,0.0,0.05981566083602187,-0.0028765856219715564
635a8325-73b2-495f-9abf-a2c6b617f5ad,9,1767701134865,-3.7510502,6.3360004,-6.3079505,0.042625,0.0138875,-0.0396,-0.0753722190856933,0.2577249407768249,-0.1180749511718755,15.4210872,73.9811992,0.08368673,0.2933339574658216,0.0,0.05981566083602187,-0.0039114097393536515
635a8325-73b2-495f-9abf-a2c6b617f5ad,9,1767701134876,-3.7129502,6.1639504,-6.3460503,0.014575,-0.007975,-0.048125,0.0593867301940918,0.2708151340484619,-0.2195983505249028,15.4210872,73.9811992,0.08368673,0.3536821399308853,0.0,0.05091214859932745,-0.013608091058824073
635a8325-73b2-495f-9abf-a2c6b617f5ad,9,1767701134887,-3.7129502,6.1639504,-6.3460503,0.014575,-0.007975,-0.048125,0.0593867301940918,0.2708151340484619,-0.2195983505249028,15.4210872,73.9811992,0.08368673,0.3536821399308853,0.0,0.05091214859932745,-0.014143410215342702
635a8325-73b2-495f-9abf-a2c6b617f5ad,9,1767701134898,-3.4830003,6.0870004,-6.4030504,0.00605,-0.0441375,-0.0551375,0.185645580291748,0.0716347694396972,-0.3156667327880864,15.4210872,73.9811992,0.08368673,0.3731505163652378,0.0,0.07088628437504677,0.005568400569716471
635a8325-73b2-495f-9abf-a2c6b617f5ad,9,1767701134908,-3.4830003,6.0870004,-6.4030504,0.00605,-0.0441375,-0.0551375,0.185645580291748,0.0716347694396972,-0.3156667327880864,15.4210872,73.9811992,0.08368673,0.3731505163652378,0.0,0.07088628437504677,0.005585763764370866
635a8325-73b2-495f-9abf-a2c6b617f5ad,9,1767701134919,-3.4830003,6.0870004,-6.4030504,0.00605,-0.0441375,-0.0551375,0.185645580291748,0.0716347694396972,-0.3156667327880864,15.4210872,73.9811992,0.08368673,0.3731505163652378,0.0,0.07088628437504677,0.005871499987053453
635a8325-73b2-495f-9abf-a2c6b617f5ad,9,1767701134930,-3.38805,6.0870004,-6.3840003,0.0099,-0.06215,-0.0418,0.1854324340820312,-0.0289700031280517,-0.3627400970458989,15.4210872,73.9811992,0.08368673,0.4084174661981223,0.0,0.07555046326793767,0.011051728050202572
635a8325-73b2-495f-9abf-a2c6b617f5ad,9,1767701134941,-3.38805,6.0870004,-6.3840003,0.0099,-0.06215,-0.0418,0.1854324340820312,-0.0289700031280517,-0.3627400970458989,15.4210872,73.9811992,0.08368673,0.4084174661981223,0.0,0.07555046326793767,0.011728398002920684
635a8325-73b2-495f-9abf-a2c6b617f5ad,9,1767701134952,-3.4069502,6.1060505,-6.3460503,0.023375,-0.0528,-0.017875,0.1401305198669433,-0.0307365655899047,-0.3684449768066411,15.4210872,73.9811992,0.08368673,0.3953896811962707,0.0,0.06044622610221419,-0.002638675196628331
635a8325-73b2-495f-9abf-a2c6b617f5ad,9,1767701134962,-3.4069502,6.1060505,-6.3460503,0.023375,-0.0528,-0.017875,0.1401305198669433,-0.0307365655899047,-0.3684449768066411,15.4210872,73.9811992,0.08368673,0.3953896811962707,0.0,0.06044622610221419,-0.0019634722696634257
635a8325-73b2-495f-9abf-a2c6b617f5ad,9,1767701134973,-3.522,6.1249504,-6.3840003,0.032449998,-0.0462,-0.0133375,0.1308674812316894,0.0500109195709228,-0.2886891937255864,15.4210872,73.9811992,0.08368673,0.3208875820192877,0.0,0.05801147538590967,-0.003915568311573119
635a8325-73b2-495f-9abf-a2c6b617f5ad,9,1767701134984,-3.522,6.1249504,-6.3840003,0.032449998,-0.0462,-0.0133375,0.1308674812316894,0.0500109195709228,-0.2886891937255864,15.4210872,73.9811992,0.08368673,0.3208875820192877,0.0,0.05801147538590967,-0.003746155152881521
635a8325-73b2-495f-9abf-a2c6b617f5ad,9,1767701134995,-3.6169503,6.1450505,-6.3460503,0.0496375,-0.0297,-0.0089375,0.0663309097290039,0.1208130121231079,-0.2655072784423833,15.4210872,73.9811992,0.08368673,0.299148271580527,0.0,0.05853076381271647,-0.00346280035314124
635a8325-73b2-495f-9abf-a2c6b617f5ad,9,1767701135005,-3.6169503,6.1450505,-6.3460503,0.0496375,-0.0297,-0.0089375,0.0663309097290039,0.1208130121231079,-0.2655072784423833,15.4210872,73.9811992,0.08368673,0.299148271580527,0.0,0.05853076381271647,-0.0041516112207394965
635a8325-73b2-495f-9abf-a2c6b617f5ad,9,1767701135016,-3.6360002,6.1639504,-6.3840003,0.054725,-0.02695,-0.0191125,0.069094181060791,0.1157936453819274,-0.2208333587646489,15.4210872,73.9811992,0.08368673,0.2587461043389312,0.0,0.0639250794387461,0.00010840612894311404
635a8325-73b2-495f-9abf-a2c6b617f5ad,9,1767701135027,-3.6360002,6.1639504,-6.3840003,0.054725,-0.02695,-0.0191125,0.069094181060791,0.1157936453819274,-0.2208333587646489,15.4210872,73.9811992,0.08368673,0.2587461043389312,0.0,0.0639250794387461,-0.0014063613326608267
635a8325-73b2-495f-9abf-a2c6b617f5ad,9,1767701135038,-3.6360002,6.1639504,-6.3840003,0.054725,-0.02695,-0.0191125,0.069094181060791,0.1157936453819274,-0.2208333587646489,15.4210872,73.9811992,0.08368673,0.2587461043389312,0.0,0.0639250794387461,-0.0031846475383639546
635a8325-73b2-495f-9abf-a2c6b617f5ad,9,1767701135049,-3.5790002,6.1060505,-6.4420505,0.058025,-0.014712499,-0.028875,0.1454253196716308,0.0676468014717102,-0.2409139251708989,15.4210872,73.9811992,0.08368673,0.2894203391128524,0.0,0.06646144654478264,-0.002534753466130604
635a8325-73b2-495f-9abf-a2c6b617f5ad,9,1767701135060,-3.5790002,6.1060505,-6.4420505,0.058025,-0.014712499,-0.028875,0.1454253196716308,0.0676468014717102,-0.2409139251708989,15.4210872,73.9811992,0.08368673,0.2894203391128524,0.0,0.06646144654478264,-0.004355326255100323
635a8325-73b2-495f-9abf-a2c6b617f5ad,9,1767701135070,-3.7129502,6.1450505,-6.3840003,0.0669625,0.0004125,-0.04235,0.0389080047607421,0.1683459877967834,-0.2041020965576176,15.4210872,73.9811992,0.08368673,0.267417034350753,0.0,0.07923174277081124,0.0068302120667000305
635a8325-73b2-495f-9abf-a2c6b617f5ad,9,1767701135081,-3.7129502,6.1450505,-6.3840003,0.0669625,0.0004125,-0.04235,0.0389080047607421,0.1683459877967834,-0.2041020965576176,15.4210872,73.9811992,0.08368673,0.267417034350753,0.0,0.07923174277081124,0.005624182626290393
635a8325-73b2-495f-9abf-a2c6b617f5ad,9,1767701135092,-3.7129502,6.22095,-6.36495,0.0644875,-0.0017875,-0.0471625,-0.0383915901184082,0.1271121501922607,-0.1673226928710942,15.4210872,73.9811992,0.08368673,0.2136078099413835,0.0,0.07991329187782219,0.005575143046754624
635a8325-73b2-495f-9abf-a2c6b617f5ad,9,1767701135103,-3.7129502,6.22095,-6.36495,0.0644875,-0.0017875,-0.0471625,-0.0383915901184082,0.1271121501922607,-0.1673226928710942,15.4210872,73.9811992,0.08368673,0.2136078099413835,0.0,0.07991329187782219,0.005358013427433237
635a8325-73b2-495f-9abf-a2c6b617f5ad,9,1767701135114,-3.7510502,6.1450505,-6.36495,0.062425,0.000275,-0.0418,-0.0091156959533691,0.1758414506912231,-0.2020021057128911,15.4210872,73.9811992,0.08368673,0.2679704506216127,0.0,0.07512786600190371,0.0008445269861285175
635a8325-73b2-495f-9abf-a2c6b617f5ad,9,1767701135124,-3.7510502,6.1450505,-6.36495,0.062425,0.000275,-0.0418,-0.0091156959533691,0.1758414506912231,-0.2020021057128911,15.4210872,73.9811992,0.08368673,0.2679704506216127,0.0,0.07512786600190371,0.001524461625165011
635a8325-73b2-495f-9abf-a2c6b617f5ad,9,1767701135135,-3.7510502,6.1450505,-6.36495,0.062425,0.000275,-0.0418,-0.0091156959533691,0.1758414506912231,-0.2020021057128911,15.4210872,73.9811992,0.08368673,0.2679704506216127,0.0,0.07512786600190371,0.002488903869532529
635a8325-73b2-495f-9abf-a2c6b617f5ad,9,1767701135146,-3.7710001,6.1060505,-6.36495,0.057475,-0.0,-0.0363,-0.0011248588562011,0.1951452493667602,-0.2194400405883794,15.4210872,73.9811992,0.08368673,0.2936611398726277,0.0,0.0679784202890888,-0.003556981119900514
635a8325-73b2-495f-9abf-a2c6b617f5ad,9,1767701135157,-3.7710001,6.1060505,-6.36495,0.057475,-0.0,-0.0363,-0.0011248588562011,0.1951452493667602,-0.2194400405883794,15.4210872,73.9811992,0.08368673,0.2936611398726277,0.0,0.0679784202890888,-0.002458160053231319
635a8325-73b2-495f-9abf-a2c6b617f5ad,9,1767701135168,-3.69405,6.183,-6.3460503,0.0471625,-0.0092124995,-0.0345125,-0.0622267723083496,0.0853673219680786,-0.2112126922607426,15.4210872,73.9811992,0.08368673,0.2361578968062427,0.0,0.05916319979123425,-0.010299046516329577
635a8325-73b2-495f-9abf-a2c6b617f5ad,9,1767701135179,-3.69405,6.183,-6.3460503,0.0471625,-0.0092124995,-0.0345125,-0.0622267723083496,0.0853673219680786,-0.2112126922607426,15.4210872,73.9811992,0.08368673,0.2361578968062427,0.0,0.05916319979123425,-0.009526677410242141
635a8325-73b2-495f-9abf-a2c6b617f5ad,9,1767701135190,-3.6360002,6.3169503,-6.3079505,0.025575,-0.0248875,-0.05555,-0.1714797019958496,-0.0254202485084533,-0.1723352050781255,15.4210872,73.9811992,0.08368673,0.2444399724679588,0.0,0.0660247739962054,-0.0021188934582581104
635a8325-73b2-495f-9abf-a2c6b617f5ad,9,1767701135200,-3.6360002,6.3169503,-6.3079505,0.025575,-0.0248875,-0.05555,-0.1714797019958496,-0.0254202485084533,-0.1723352050781255,15.4210872,73.9811992,0.08368673,0.2444399724679588,0.0,0.0660247739962054,-0.0017672705316164633
635a8325-73b2-495f-9abf-a2c6b617f5ad,9,1767701135211,-3.59805,6.2590504,-6.327,0.011275,-0.0264,-0.0721875,-0.1116790771484375,-0.0520517230033874,-0.2111745452880864,15.4210872,73.9811992,0.08368673,0.2444918949944519,0.0,0.0776860398092862,0.010132488988150213
635a8325-73b2-495f-9abf-a2c6b617f5ad,9,1767701135222,-3.59805,6.2590504,-6.327,0.011275,-0.0264,-0.0721875,-0.1116790771484375,-0.0520517230033874,-0.2111745452880864,15.4210872,73.9811992,0.08368673,0.2444918949944519,0.0,0.0776860398092862,0.010376518198170133
635a8325-73b2-495f-9abf-a2c6b617f5ad,9,1767701135233,-3.59805,6.1639504,-6.36495,-0.0169125,-0.018975,-0.0609125,-0.0221624374389648,-0.0344898700714111,-0.2469897842407231,15.4210872,73.9811992,0.08368673,0.2503690841339198,0.0,0.06600315096645008,-0.0009179057085120109
635a8325-73b2-495f-9abf-a2c6b617f5ad,9,1767701135244,-3.59805,6.1639504,-6.36495,-0.0169125,-0.018975,-0.0609125,-0.0221624374389648,-0.0344898700714111,-0.2469897842407231,15.4210872,73.9811992,0.08368673,0.2503690841339198,0.0,0.06600315096645008,-0.0002443373104781866
635a8325-73b2-495f-9abf-a2c6b617f5ad,9,1767701135254,-3.59805,6.1639504,-6.36495,-0.0169125,-0.018975,-0.0609125,-0.0221624374389648,-0.0344898700714111,-0.2469897842407231,15.4210872,73.9811992,0.08368673,0.2503690841339198,0.0,0.06600315096645008,0.0008393111146758577
635a8325-73b2-495f-9abf-a2c6b617f5ad,9,1767701135265,-3.5790002,6.183,-6.3840003,-0.026675,-0.0094875,-0.0548625,-0.0132503509521484,-0.0727906227111816,-0.2293544387817387,15.4210872,73.9811992,0.08368673,0.2409927491521748,0.0,0.06173704064417082,-0.001838386689007805
635a8325-73b2-495f-9abf-a2c6b617f5ad,9,1767701135276,-3.5790002,6.183,-6.3840003,-0.026675,-0.0094875,-0.0548625,-0.0132503509521484,-0.0727906227111816,-0.2293544387817387,15.4210872,73.9811992,0.08368673,0.2409927491521748,0.0,0.06173704064417082,0.00030852535345557295
635a8325-73b2-495f-9abf-a2c6b617f5ad,9,1767701135287,-3.5790002,6.183,-6.36495,-0.028324999,-0.0017875,-0.049225,-0.0214810371398925,-0.0785114169120788,-0.2421022033691411,15.4210872,73.9811992,0.08368673,0.2554191739442062,0.0,0.056820782726041366,-0.0018958273465545556
635a8325-73b2-495f-9abf-a2c6b617f5ad,9,1767701135297,-3.5790002,6.183,-6.36495,-0.028324999,-0.0017875,-0.049225,-0.0214810371398925,-0.0785114169120788,-0.2421022033691411,15.4210872,73.9811992,0.08368673,0.2554191739442062,0.0,0.056820782726041366,0.0013383187103944275
635a8325-73b2-495f-9abf-a2c6b617f5ad,9,1767701135308,-3.59805,6.20205,-6.36495,-0.03135,0.0004125,-0.0364375,-0.0316510200500488,-0.0747460722923278,-0.2226443862915044,15.4210872,73.9811992,0.08368673,0.2369795036294471,0.0,0.048069575226956186,-0.003746591011330063
635a8325-73b2-495f-9abf-a2c6b617f5ad,9,1767701135319,-3.59805,6.20205,-6.36495,-0.03135,0.0004125,-0.0364375,-0.0316510200500488,-0.0747460722923278,-0.2226443862915044,15.4210872,73.9811992,0.08368673,0.2369795036294471,0.0,0.048069575226956186,0.0002197441812712485
635a8325-73b2-495f-9abf-a2c6b617f5ad,9,1767701135330,-3.6360002,6.1639504,-6.4030504,-0.0306625,0.0039875,-0.0251625,0.0189075469970703,-0.0330901741981506,-0.2072702026367192,15.4210872,73.9811992,0.08368673,0.2107448501458031,0.0,0.03986527898748484,-0.003884125454470656
635a8325-73b2-495f-9abf-a2c6b617f5ad,9,1767701135340,-3.6360002,6.1639504,-6.4030504,-0.0306625,0.0039875,-0.0251625,0.0189075469970703,-0.0330901741981506,-0.2072702026367192,15.4210872,73.9811992,0.08368673,0.2107448501458031,0.0,0.03986527898748484,0.00016123550248328802
635a8325-73b2-495f-9abf-a2c6b617f5ad,9,1767701135351,-3.6360002,6.1639504,-6.4030504,-0.0306625,0.0039875,-0.0251625,0.0189075469970703,-0.0330901741981506,-0.2072702026367192,15.4210872,73.9811992,0.08368673,0.2107448501458031,0.0,0.03986527898748484,0.003951831153094862
635a8325-73b2-495f-9abf-a2c6b617f5ad,9,1767701135362,-3.6360002,6.1060505,-6.3840003,-0.02475,0.0187,-0.018424999,0.0467433929443359,-0.0093228816986083,-0.2571178054809575,15.4210872,73.9811992,0.08368673,0.2614984260037876,0.0,0.03607953835832716,0.003506019878173847
635a8325-73b2-495f-9abf-a2c6b617f5ad,9,1767701135373,-3.6360002,6.1060505,-6.3840003,-0.02475,0.0187,-0.018424999,0.0467433929443359,-0.0093228816986083,-0.2571178054809575,15.4210872,73.9811992,0.08368673,0.2614984260037876,0.0,0.03607953835832716,0.006218674440336451
635a8325-73b2-495f-9abf-a2c6b617f5ad,9,1767701135384,-3.6360002,6.1060505,-6.3840003,-0.02475,0.0187,-0.018424999,0.0467433929443359,-0.0093228816986083,-0.2571178054809575,15.4210872,73.9811992,0.08368673,0.2614984260037876,0.0,0.03607953835832716,0.008162530834145023
635a8325-73b2-495f-9abf-a2c6b617f5ad,9,1767701135395,-3.6169503,6.0679502,-6.4219503,-0.015262499,0.014712499,-0.0015125,0.1033878326416015,-0.0155369639396667,-0.2636457061767583,15.4210872,73.9811992,0.08368673,0.2836185811476954,0.0,0.02125297999810855,-0.005580646871935275
635a8325-73b2-495f-9abf-a2c6b617f5ad,9,1767701135406,-3.6750002,6.03,-6.4219503,-0.005225,0.014162499,0.012375,0.1152472496032714,0.0540735721588134,-0.2657981491088872,15.4210872,73.9811992,0.08368673,0.2947109360319759,0.0,0.019519672843697995,-0.007120955048793062
635a8325-73b2-495f-9abf-a2c6b617f5ad,9,1767701135417,-3.6750002,6.03,-6.4219503,-0.005225,0.014162499,0.012375,0.1152472496032714,0.0540735721588134,-0.2657981491088872,15.4210872,73.9811992,0.08368673,0.2947109360319759,0.0,0.019519672843697995,-0.007779427283219044
635a8325-73b2-495f-9abf-a2c6b617f5ad,9,1767701135428,-3.65595,6.0100503,-6.4800005,0.016224999,0.0121,0.010725,0.1696357727050781,0.0411545038223266,-0.2472253417968755,15.4210872,73.9811992,0.08368673,0.3026389898752187,0.0,0.02290603015692595,-0.00579496735783736
635a8325-73b2-495f-9abf-a2c6b617f5ad,9,1767701135438,-3.65595,6.0100503,-6.4800005,0.016224999,0.0121,0.010725,0.1696357727050781,0.0411545038223266,-0.2472253417968755,15.4210872,73.9811992,0.08368673,0.3026389898752187,0.0,0.02290603015692595,-0.00777061567187198
635a8325-73b2-495f-9abf-a2c6b617f5ad,9,1767701135449,-3.6750002,6.20205,-6.4420505,0.03795,0.0099,0.004125,0.0073585510253906,-0.0126034021377563,-0.141964492797852,15.4210872,73.9811992,0.08368673,0.1427126877120274,0.0,0.03943638072896649,0.006426391896918027
635a8325-73b2-495f-9abf-a2c6b617f5ad,10,1767701135460,-3.6750002,6.20205,-6.4420505,0.03795,0.0099,0.004125,0.0073585510253906,-0.0126034021377563,-0.141964492797852,15.4210928,73.9812039,0.034470543,0.1427126877120274,0.0,0.03943638072896649,0.0039762568185331675
635a8325-73b2-495f-9abf-a2c6b617f5ad,10,1767701135470,-3.6750002,6.20205,-6.4420505,0.03795,0.0099,0.004125,0.0073585510253906,-0.0126034021377563,-0.141964492797852,15.4210928,73.9812039,0.034470543,0.1427126877120274,0.0,0.03943638072896649,0.0016498849671611766
635a8325-73b2-495f-9abf-a2c6b617f5ad,10,1767701135481,-3.69405,6.3169503,-6.4420505,0.045649998,0.0143,-0.0044,-0.0765314102172851,-0.0405294895172119,-0.061031875610352,15.4210928,73.9812039,0.034470543,0.1059461472206028,0.0,0.04803927890174876,0.008264860828354568
635a8325-73b2-495f-9abf-a2c6b617f5ad,10,1767701135492,-3.69405,6.3169503,-6.4420505,0.045649998,0.0143,-0.0044,-0.0765314102172851,-0.0405294895172119,-0.061031875610352,15.4210928,73.9812039,0.034470543,0.1059461472206028,0.0,0.04803927890174876,0.006781742273826553
635a8325-73b2-495f-9abf-a2c6b617f5ad,10,1767701135503,-3.6750002,6.20205,-6.4800005,0.039325,0.0094875,-0.0042625,0.0200252532958984,-0.0153230428695678,-0.1166596984863286,15.4210928,73.9812039,0.034470543,0.1193536411814428,0.0,0.04067723180724077,-0.0014571796582683678
635a8325-73b2-495f-9abf-a2c6b617f5ad,10,1767701135513,-3.6750002,6.20205,-6.4800005,0.039325,0.0094875,-0.0042625,0.0200252532958984,-0.0153230428695678,-0.1166596984863286,15.4210928,73.9812039,0.034470543,0.1193536411814428,0.0,0.04067723180724077,-0.001700176468148516
635a8325-73b2-495f-9abf-a2c6b617f5ad,10,1767701135524,-3.59805,6.1060505,-6.49905,0.0372625,0.0006875,-0.00715,0.0994000434875488,-0.0485011935234069,-0.1946359252929692,15.4210928,73.9812039,0.034470543,0.2238657585098084,0.0,0.0379485054053516,-0.004084785036645239
635a8325-73b2-495f-9abf-a2c6b617f5ad,10,1767701135534,-3.59805,6.1060505,-6.49905,0.0372625,0.0006875,-0.00715,0.0994000434875488,-0.0485011935234069,-0.1946359252929692,15.4210928,73.9812039,0.034470543,0.2238657585098084,0.0,0.0379485054053516,-0.0032675171240793893
635a8325-73b2-495f-9abf-a2c6b617f5ad,10,1767701135545,-3.4830003,6.1060505,-6.4609504,0.0391875,-0.00385,-0.0056375,0.0831518173217773,-0.1478425860404968,-0.2637820816040044,15.4210928,73.9812039,0.034470543,0.313612247124371,0.0,0.039777682970479816,-0.00031544941348355494
635a8325-73b2-495f-9abf-a2c6b617f5ad,10,1767701135556,-3.4830003,6.1060505,-6.4609504,0.0391875,-0.00385,-0.0056375,0.0831518173217773,-0.1478425860404968,-0.2637820816040044,15.4210928,73.9812039,0.034470543,0.313612247124371,0.0,0.039777682970479816,0.0009102253311887028
635a8325-73b2-495f-9abf-a2c6b617f5ad,10,1767701135567,-3.4830003,6.1060505,-6.4609504,0.0391875,-0.00385,-0.0056375,0.0831518173217773,-0.1478425860404968,-0.2637820816040044,15.4210928,73.9812039,0.034470543,0.313612247124371,0.0,0.039777682970479816,0.0020214098979316544
635a8325-73b2-495f-9abf-a2c6b617f5ad,10,1767701135577,-3.4069502,6.1639504,-6.3460503,0.0408375,-0.001925,0.0022,-0.0321407318115234,-0.2246699929237365,-0.3325276947021489,15.4210928,73.9812039,0.034470543,0.4025969449780484,0.0,0.04094199593632435,0.0039722211433342956
635a8325-73b2-495f-9abf-a2c6b617f5ad,10,1767701135588,-3.4069502,6.1639504,-6.3460503,0.0408375,-0.001925,0.0022,-0.0321407318115234,-0.2246699929237365,-0.3325276947021489,15.4210928,73.9812039,0.034470543,0.4025969449780484,0.0,0.04094199593632435,0.004251202015754689
635a8325-73b2-495f-9abf-a2c6b617f5ad,10,1767701135599,-3.4450502,6.20205,-6.327,0.0253,0.0125124995,-0.003575,-0.0841579437255859,-0.2008410692214965,-0.3064561462402349,15.4210928,73.9812039,0.034470543,0.3759455600835965,0.0,0.02845054074595947,-0.008606929750865555
635a8325-73b2-495f-9abf-a2c6b617f5ad,10,1767701135610,-3.4450502,6.20205,-6.327,0.0253,0.0125124995,-0.003575,-0.0841579437255859,-0.2008410692214965,-0.3064561462402349,15.4210928,73.9812039,0.034470543,0.3759455600835965,0.0,0.02845054074595947,-0.009699861038964109
635a8325-73b2-495f-9abf-a2c6b617f5ad,10,1767701135621,-3.4830003,6.2590504,-6.3840003,0.0122375,0.0380875,0.001375,-0.0902085304260253,-0.1920788288116455,-0.2174268341064458,15.4210928,73.9812039,0.034470543,0.3038194918513762,0.0,0.040028798227026506,4.3395433568851645e-05
635a8325-73b2-495f-9abf-a2c6b617f5ad,10,1767701135632,-3.4830003,6.2590504,-6.3840003,0.0122375,0.0380875,0.001375,-0.0902085304260253,-0.1920788288116455,-0.2174268341064458,15.4210928,73.9812039,0.034470543,0.3038194918513762,0.0,0.040028798227026506,-0.0024836248167920726
635a8325-73b2-495f-9abf-a2c6b617f5ad,10,1767701135642,-3.5410502,6.22095,-6.4219503,0.0026125,0.0528,0.00605,-0.0522756576538085,-0.119559109210968,-0.1941953277587895,15.4210928,73.9812039,0.034470543,0.2339635661845708,0.0,0.053209657546821325,0.0075892539412292835
635a8325-73b2-495f-9abf-a2c6b617f5ad,10,1767701135653,-3.5410502,6.22095,-6.4219503,0.0026125,0.0528,0.00605,-0.0522756576538085,-0.119559109210968,-0.1941953277587895,15.4210928,73.9812039,0.034470543,0.2339635661845708,0.0,0.053209657546821325,0.004062548973606394
635a8325-73b2-495f-9abf-a2c6b617f5ad,10,1767701135664,-3.5020502,6.20205,-6.4219503,-0.0158125,0.0521125,0.017875,-0.0363602638244628,-0.1352782845497131,-0.2208591079711919,15.4210928,73.9812039,0.034470543,0.2615359031374628,0.0,0.057317217635715706,0.004424772419514189
635a8325-73b2-495f-9abf-a2c6b617f5ad,10,1767701135674,-3.5020502,6.20205,-6.4219503,-0.0158125,0.0521125,0.017875,-0.0363602638244628,-0.1352782845497131,-0.2208591079711919,15.4210928,73.9812039,0.034470543,0.2615359031374628,0.0,0.057317217635715706,0.0006835796832779998
635a8325-73b2-495f-9abf-a2c6b617f5ad,10,1767701135685,-3.5020502,6.20205,-6.4219503,-0.0158125,0.0521125,0.017875,-0.0363602638244628,-0.1352782845497131,-0.2208591079711919,15.4210928,73.9812039,0.034470543,0.2615359031374628,0.0,0.057317217635715706,-0.0028236150453296114
635a8325-73b2-495f-9abf-a2c6b617f5ad,10,1767701135696,-3.4830003,6.20205,-6.3840003,-0.02915,0.044,0.034375,-0.0602250099182128,-0.1334705352783203,-0.25328784942627,15.4210928,73.9812039,0.034470543,0.2925682318265519,0.0,0.06298700758886709,-0.00020512780086799737
635a8325-73b2-495f-9abf-a2c6b617f5ad,10,1767701135707,-3.4830003,6.20205,-6.3840003,-0.02915,0.044,0.034375,-0.0602250099182128,-0.1334705352783203,-0.25328784942627,15.4210928,73.9812039,0.034470543,0.2925682318265519,0.0,0.06298700758886709,-0.0026005272241933592
635a8325-73b2-495f-9abf-a2c6b617f5ad,10,1767701135717,-3.5020502,6.1639504,-6.3840003,-0.0270875,0.0380875,0.0455125,-0.0348343849182128,-0.0849140882492065,-0.2703099822998052,15.4210928,73.9812039,0.034470543,0.2854668514674606,0.0,0.06523632399783115,-0.00192513812200087
635a8325-73b2-495f-9abf-a2c6b617f5ad,10,1767701135728,-3.5020502,6.1639504,-6.3840003,-0.0270875,0.0380875,0.0455125,-0.0348343849182128,-0.0849140882492065,-0.2703099822998052,15.4210928,73.9812039,0.034470543,0.2854668514674606,0.0,0.06523632399783115,-0.0025575038182021016
635a8325-73b2-495f-9abf-a2c6b617f5ad,10,1767701135739,-3.55995,6.20205,-6.4030504,-0.022,0.0411125,0.046475,-0.0524091720581054,-0.034597098827362,-0.2113662338256841,15.4210928,73.9812039,0.034470543,0.2204979940152293,0.0,0.0658343624655848,-0.0015849007334423455
635a8325-73b2-495f-9abf-a2c6b617f5ad,10,1767701135750,-3.55995,6.20205,-6.4030504,-0.022,0.0411125,0.046475,-0.0524091720581054,-0.034597098827362,-0.2113662338256841,15.4210928,73.9812039,0.034470543,0.2204979940152293,0.0,0.0658343624655848,-0.00019969639720527526
635a8325-73b2-495f-9abf-a2c6b617f5ad,10,1767701135761,-3.55995,6.20205,-6.4030504,-0.022,0.0411125,0.046475,-0.0524091720581054,-0.034597098827362,-0.2113662338256841,15.4210928,73.9812039,0.034470543,0.2204979940152293,0.0,0.0658343624655848,0.0021343154725215886
635a8325-73b2-495f-9abf-a2c6b617f5ad,10,1767701135771,-3.6169503,6.2590504,-6.4219503,-0.021175,0.039875,0.0457875,-0.0819406509399414,0.0074365735054016,-0.1408382034301762,15.4210928,73.9812039,0.034470543,0.1631103076062401,0.0,0.06430312127921942,0.003758583634389846
635a8325-73b2-495f-9abf-a2c6b617f5ad,10,1767701135782,-3.6169503,6.2590504,-6.4219503,-0.021175,0.039875,0.0457875,-0.0819406509399414,0.0074365735054016,-0.1408382034301762,15.4210928,73.9812039,0.034470543,0.1631103076062401,0.0,0.06430312127921942,0.00754762647911206
635a8325-73b2-495f-9abf-a2c6b617f5ad,10,1767701135793,-3.6169503,6.2400002,-6.4030504,-0.021175,0.0232375,0.0378125,-0.0785465240478515,0.0325930714607238,-0.1657386398315434,15.4210928,73.9812039,0.034470543,0.186282477652767,0.0,0.04917466001407635,-0.00339681896308918
635a8325-73b2-495f-9abf-a2c6b617f5ad,10,1767701135804,-3.6169503,6.2400002,-6.4030504,-0.021175,0.0232375,0.0378125,-0.0785465240478515,0.0325930714607238,-0.1657386398315434,15.4210928,73.9812039,0.034470543,0.186282477652767,0.0,0.04917466001407635,0.0009081962211381647
635a8325-73b2-495f-9abf-a2c6b617f5ad,10,1767701135814,-3.6360002,6.183,-6.3840003,-0.0243375,0.01375,0.0314875,-0.052800178527832,0.0834442973136901,-0.2081418609619145,15.4210928,73.9812039,0.034470543,0.2303776115238532,0.0,0.04210509544580086,-0.0020252490999601914
635a8325-73b2-495f-9abf-a2c6b617f5ad,10,1767701135825,-3.6360002,6.183,-6.3840003,-0.0243375,0.01375,0.0314875,-0.052800178527832,0.0834442973136901,-0.2081418609619145,15.4210928,73.9812039,0.034470543,0.2303776115238532,0.0,0.04210509544580086,0.0016584556100606455
635a8325-73b2-495f-9abf-a2c6b617f5ad,10,1767701135836,-3.55995,6.1249504,-6.3840003,-0.022,-0.006325,0.02805,0.0050997734069824,0.0445622205734252,-0.2736611938476567,15.4210928,73.9812039,0.034470543,0.2773125460727695,0.0,0.03620508424240993,-0.0012643153105118842
635a8325-73b2-495f-9abf-a2c6b617f5ad,10,1767701135847,-3.55995,6.1249504,-6.3840003,-0.022,-0.006325,0.02805,0.0050997734069824,0.0445622205734252,-0.2736611938476567,15.4210928,73.9812039,0.034470543,0.2773125460727695,0.0,0.03620508424240993,0.000803491868180403
635a8325-73b2-495f-9abf-a2c6b617f5ad,10,1767701135857,-3.522,6.1450505,-6.36495,-0.0138875,-0.025024999,0.01375,-0.0085687637329101,0.0085337162017822,-0.2874665832519536,15.4210928,73.9812039,0.034470543,0.2877208447622024,0.0,0.03175178311843291,-0.002625448804009543
635a8325-73b2-495f-9abf-a2c6b617f5ad,10,1767701135868,-3.522,6.1450505,-6.36495,-0.0138875,-0.025024999,0.01375,-0.0085687637329101,0.0085337162017822,-0.2874665832519536,15.4210928,73.9812039,0.034470543,0.2877208447622024,0.0,0.03175178311843291,-0.0026974390327892967
635a8325-73b2-495f-9abf-a2c6b617f5ad,10,1767701135879,-3.522,6.1450505,-6.36495,-0.0138875,-0.025024999,0.01375,-0.0085687637329101,0.0085337162017822,-0.2874665832519536,15.4210928,73.9812039,0.034470543,0.2877208447622024,0.0,0.03175178311843291,-0.0038325947185102543
635a8325-73b2-495f-9abf-a2c6b617f5ad,10,1767701135890,-3.55995,6.22095,-6.3460503,-0.00495,-0.034649998,0.010725,-0.0716238021850586,0.0139914751052856,-0.2370935058593755,15.4210928,73.9812039,0.034470543,0.2480706772993454,0.0,0.03660806586532542,-0.0010582717027385385
635a8325-73b2-495f-9abf-a2c6b617f5ad,10,1767701135901,-3.55995,6.22095,-6.3460503,-0.00495,-0.034649998,0.010725,-0.0716238021850586,0.0139914751052856,-0.2370935058593755,15.4210928,73.9812039,0.034470543,0.2480706772993454,0.0,0.03660806586532542,-0.0038981329994867597
635a8325-73b2-495f-9abf-a2c6b617f5ad,10,1767701135911,-3.59805,6.22095,-6.36495,0.0077,-0.0435875,0.0188375,-0.0584111213684082,0.0427457094192504,-0.2103372192382817,15.4210928,73.9812039,0.034470543,0.2224428029183298,0.0,0.048104174065251346,0.004244397679760862
635a8325-73b2-495f-9abf-a2c6b617f5ad,10,1767701135922,-3.59805,6.22095,-6.36495,0.0077,-0.0435875,0.0188375,-0.0584111213684082,0.0427457094192504,-0.2103372192382817,15.4210928,73.9812039,0.034470543,0.2224428029183298,0.0,0.048104174065251346,0.0006546164790897977
635a8325-73b2-495f-9abf-a2c6b617f5ad,10,1767701135933,-3.59805,6.2400002,-6.4030504,0.011,-0.0490875,0.0210375,-0.0380306243896484,0.0260570645332336,-0.1725450134277348,15.4210928,73.9812039,0.034470543,0.178597538231446,0.0,0.0545266821152727,0.0035378289506125147
635a8325-73b2-495f-9abf-a2c6b617f5ad,10,1767701135943,-3.59805,6.2400002,-6.4030504,0.011,-0.0490875,0.0210375,-0.0380306243896484,0.0260570645332336,-0.1725450134277348,15.4210928,73.9812039,0.034470543,0.178597538231446,0.0,0.0545266821152727,0.0003212582668751171
635a8325-73b2-495f-9abf-a2c6b617f5ad,10,1767701135954,-3.59805,6.183,-6.4219503,0.01155,-0.0576125,0.020075,0.0159811973571777,0.0414521098136901,-0.1967301940917973,15.4210928,73.9812039,0.034470543,0.201684023522865,0.0,0.06209354460207598,0.0052314910303708235
635a8325-73b2-495f-9abf-a2c6b617f5ad,10,1767701135965,-3.59805,6.183,-6.4219503,0.01155,-0.0576125,0.020075,0.0159811973571777,0.0414521098136901,-0.1967301940917973,15.4210928,73.9812039,0.034470543,0.201684023522865,0.0,0.06209354460207598,0.003321448120874846
635a8325-73b2-495f-9abf-a2c6b617f5ad,10,1767701135976,-3.522,6.183,-6.4030504,0.0121,-0.0567875,0.01375,0.0193419456481933,-0.0309104323387146,-0.2375531768798833,15.4210928,73.9812039,0.034470543,0.2403353439145999,0.0,0.05966818797525194,-0.0001406646380967216
635a8325-73b2-495f-9abf-a2c6b617f5ad,10,1767701135986,-3.522,6.183,-6.4030504,0.0121,-0.0567875,0.01375,0.0193419456481933,-0.0309104323387146,-0.2375531768798833,15.4210928,73.9812039,0.034470543,0.2403353439145999,0.0,0.05966818797525194,-0.00024039669185217305
635a8325-73b2-495f-9abf-a2c6b617f5ad,10,1767701135997,-3.522,6.183,-6.4030504,0.0121,-0.0567875,0.01375,0.0193419456481933,-0.0309104323387146,-0.2375531768798833,15.4210928,73.9812039,0.034470543,0.2403353439145999,0.0,0.05966818797525194,0.000600274159613736
635a8325-73b2-495f-9abf-a2c6b617f5ad,10,1767701136008,-3.522,6.183,-6.327,0.0119624995,-0.049775,0.0144375,-0.0332050323486328,-0.0277831554412841,-0.288286743164063,15.4210928,73.9812039,0.034470543,0.2915196806112595,0.0,0.05318922283261432,-0.004147840420274539
635a8325-73b2-495f-9abf-a2c6b617f5ad,10,1767701136018,-3.522,6.183,-6.327,0.0119624995,-0.049775,0.0144375,-0.0332050323486328,-0.0277831554412841,-0.288286743164063,15.4210928,73.9812039,0.034470543,0.2915196806112595,0.0,0.05318922283261432,-0.0016215992571749296
635a8325-73b2-495f-9abf-a2c6b617f5ad,10,1767701136029,-3.5410502,6.183,-6.36495,0.0125124995,-0.039325,0.0188375,-0.006235122680664,-0.0201934576034545,-0.255907592773438,15.4210928,73.9812039,0.034470543,0.2567787929793292,0.0,0.04536374846711304,-0.006255357279148287
635a8325-73b2-495f-9abf-a2c6b617f5ad,10,1767701136040,-3.5410502,6.183,-6.36495,0.0125124995,-0.039325,0.0188375,-0.006235122680664,-0.0201934576034545,-0.255907592773438,15.4210928,73.9812039,0.034470543,0.2567787929793292,0.0,0.04536374846711304,-0.0025548410542729264
635a8325-73b2-495f-9abf-a2c6b617f5ad,10,1767701136051,-3.59805,6.183,-6.4030504,0.01155,-0.0309375,0.0158125,0.0119562149047851,0.0237708687782287,-0.2092824554443364,15.4210928,73.9812039,0.034470543,0.2109671809408559,0.0,0.03661374827165337,-0.007272411096633148
635a8325-73b2-495f-9abf-a2c6b617f5ad,10,1767701136061,-3.59805,6.183,-6.4030504,0.01155,-0.0309375,0.0158125,0.0119562149047851,0.0237708687782287,-0.2092824554443364,15.4210928,73.9812039,0.034470543,0.2109671809408559,0.0,0.03661374827165337,-0.003100250025028026
635a8325-73b2-495f-9abf-a2c6b617f5ad,10,1767701136072,-3.59805,6.183,-6.4420505,0.0154,-0.02695,0.026124999,0.0404682159423828,0.0161508321762084,-0.1832891082763676,15.4210928,73.9812039,0.034470543,0.1883969827101522,0.0,0.04057065531575749,0.004965443488338292
635a8325-73b2-495f-9abf-a2c6b617f5ad,10,1767701136083,-3.59805,6.183,-6.4420505,0.0154,-0.02695,0.026124999,0.0404682159423828,0.0161508321762084,-0.1832891082763676,15.4210928,73.9812039,0.034470543,0.1883969827101522,0.0,0.04057065531575749,0.008802416182863471
635a8325-73b2-495f-9abf-a2c6b617f5ad,10,1767701136094,-3.59805,6.183,-6.4420505,0.0154,-0.02695,0.026124999,0.0404682159423828,0.0161508321762084,-0.1832891082763676,15.4210928,73.9812039,0.034470543,0.1883969827101522,0.0,0.04057065531575749,0.01216250800359642
635a8325-73b2-495f-9abf-a2c6b617f5ad,10,1767701136104,-3.6169503,6.183,-6.4219503,0.01375,-0.0235125,0.0235125,0.0214185714721679,0.0348855257034301,-0.1896253204345708,15.4210928,73.9812039,0.034470543,0.1939936010734032,0.0,0.035982465347721794,0.010269024512280525
635a8325-73b2-495f-9abf-a2c6b617f5ad,10,1767701136115,-3.6169503,6.183,-6.4219503,0.01375,-0.0235125,0.0235125,0.0214185714721679,0.0348855257034301,-0.1896253204345708,15.4210928,73.9812039,0.034470543,0.1939936010734032,0.0,0.035982465347721794,0.012144218861657665
635a8325-73b2-495f-9abf-a2c6b617f5ad,10,1767701136126,-3.6169503,6.1639504,-6.4219503,0.0061875,-0.01265,0.0094875,0.0327420234680175,0.0409201383590698,-0.2019134140014653,15.4210928,73.9812039,0.034470543,0.2086037501528502,0.0,0.016979997423439145,-0.005901439583360204
635a8325-73b2-495f-9abf-a2c6b617f5ad,10,1767701136137,-3.6169503,6.1639504,-6.4219503,0.0061875,-0.01265,0.0094875,0.0327420234680175,0.0409201383590698,-0.2019134140014653,15.4210928,73.9812039,0.034470543,0.2086037501528502,0.0,0.016979997423439145,-0.005886002938148776
635a8325-73b2-495f-9abf-a2c6b617f5ad,10,1767701136148,-3.55995,6.183,-6.4030504,0.0033,0.00055,-0.003575,0.0166997909545898,-0.016868233680725,-0.2234864807128911,15.4210928,73.9812039,0.034470543,0.2247434701762612,0.0,0.004896235799060335,-0.018826963730440995
635a8325-73b2-495f-9abf-a2c6b617f5ad,10,1767701136158,-3.55995,6.183,-6.4030504,0.0033,0.00055,-0.003575,0.0166997909545898,-0.016868233680725,-0.2234864807128911,15.4210928,73.9812039,0.034470543,0.2247434701762612,0.0,0.004896235799060335,-0.020390069615968162
635a8325-73b2-495f-9abf-a2c6b617f5ad,10,1767701136169,-3.5410502,6.20205,-6.36495,0.0015125,0.014025,-0.0204875,-0.0210232734680175,-0.0367084741592407,-0.243639526367188,15.4210928,73.9812039,0.034470543,0.2472846718072885,0.0,0.024874202248514422,-0.0024234576585425377
635a8325-73b2-495f-9abf-a2c6b617f5ad,10,1767701136180,-3.5410502,6.20205,-6.36495,0.0015125,0.014025,-0.0204875,-0.0210232734680175,-0.0367084741592407,-0.243639526367188,15.4210928,73.9812039,0.034470543,0.2472846718072885,0.0,0.024874202248514422,-0.004556431190738185
635a8325-73b2-495f-9abf-a2c6b617f5ad,10,1767701136191,-3.5410502,6.20205,-6.36495,0.0015125,0.014025,-0.0204875,-0.0210232734680175,-0.0367084741592407,-0.243639526367188,15.4210928,73.9812039,0.034470543,0.2472846718072885,0.0,0.024874202248514422,-0.006450940955941725
635a8325-73b2-495f-9abf-a2c6b617f5ad,10,1767701136201,-3.522,6.22095,-6.3840003,-0.0061875,0.03135,-0.0364375,-0.0177326202392578,-0.0639719367027282,-0.225857315063477,15.4210928,73.9812039,0.034470543,0.2354110899548497,0.0,0.048464410266710146,0.01583192325241016
