session_id,window_id,timestamp,accel_x,accel_y,accel_z,gyro_x,gyro_y,gyro_z,linear_accel_x,linear_accel_y,linear_accel_z,latitude,longitude,speed,vibration_intensity,anomaly_score,raw_magnitude,vibration_only
bcad4cd6-2134-49d6-ad24-1eb7677f5a6f,4,1767702669611,2.0689502,-7.6420503,-5.31195,0.0072875,0.000825,0.08195,0.004591941833496,-0.8819198608398438,-0.3168168640136724,15.4212567,73.9813083,0.12610695,0.9371108003843672,0.0,0.08227752294065493,0.011034672368668537
bcad4cd6-2134-49d6-ad24-1eb7677f5a6f,4,1767702669621,1.6860001,-7.5840006,-5.21595,-0.00715,0.0028875,0.056649998,0.0361971855163574,-0.5215588808059692,-0.4669557189941411,15.4212567,73.9813083,0.12610695,0.7009861238913478,0.0,0.0571723921980706,-0.011497395052959446
bcad4cd6-2134-49d6-ad24-1eb7677f5a6f,4,1767702669632,1.6860001,-7.5840006,-5.21595,-0.00715,0.0028875,0.056649998,0.0361971855163574,-0.5215588808059692,-0.4669557189941411,15.4212567,73.9813083,0.12610695,0.7009861238913478,0.0,0.0571723921980706,-0.009598414299784398
bcad4cd6-2134-49d6-ad24-1eb7677f5a6f,4,1767702669643,1.6860001,-7.5840006,-5.21595,-0.00715,0.0028875,0.056649998,0.0361971855163574,-0.5215588808059692,-0.4669557189941411,15.4212567,73.9813083,0.12610695,0.7009861238913478,0.0,0.0571723921980706,-0.0082606744068571
bcad4cd6-2134-49d6-ad24-1eb7677f5a6f,4,1767702669654,2.0310001,-7.79505,-5.3310003,-0.0548625,0.0088,0.041525,0.0683403015136718,-0.8291753530502319,-0.1863236999511723,15.4212567,73.9813083,0.12610695,0.8525952639326886,0.0,0.06936612668478759,0.004808173763176613
bcad4cd6-2134-49d6-ad24-1eb7677f5a6f,4,1767702669664,2.0310001,-7.79505,-5.3310003,-0.0548625,0.0088,0.041525,0.0683403015136718,-0.8291753530502319,-0.1863236999511723,15.4212567,73.9813083,0.12610695,0.8525952639326886,0.0,0.06936612668478759,0.005292923626250212
bcad4cd6-2134-49d6-ad24-1eb7677f5a6f,4,1767702669675,1.60905,-7.66095,-5.1780005,-0.0606375,0.015675,0.0229625,0.1166458129882812,-0.426143079996109,-0.4347291564941411,15.4212567,73.9813083,0.12610695,0.6198335339608326,0.0,0.06670748411910016,0.002768067385667177
bcad4cd6-2134-49d6-ad24-1eb7677f5a6f,4,1767702669686,1.60905,-7.66095,-5.1780005,-0.0606375,0.015675,0.0229625,0.1166458129882812,-0.426143079996109,-0.4347291564941411,15.4212567,73.9813083,0.12610695,0.6198335339608326,0.0,0.06670748411910016,0.0025569243578291204
bcad4cd6-2134-49d6-ad24-1eb7677f5a6f,4,1767702669697,1.7820001,-7.6420503,-5.21595,-0.052249998,0.02475,0.0259875,0.0885853767395019,-0.5794694423675537,-0.4057994461059575,15.4212567,73.9813083,0.12610695,0.7129553941655432,0.0,0.06338749835140998,-0.001340957716379318
bcad4cd6-2134-49d6-ad24-1eb7677f5a6f,4,1767702669708,1.7820001,-7.6420503,-5.21595,-0.052249998,0.02475,0.0259875,0.0885853767395019,-0.5794694423675537,-0.4057994461059575,15.4212567,73.9813083,0.12610695,0.7129553941655432,0.0,0.06338749835140998,-0.002324348044796326
bcad4cd6-2134-49d6-ad24-1eb7677f5a6f,4,1767702669719,1.72395,-7.66095,-5.19705,-0.0490875,0.041249998,0.031625,0.1209669113159179,-0.512111485004425,-0.4081578826904302,15.4212567,73.9813083,0.12610695,0.6659459617034145,0.0,0.07149325573961508,0.004351981863357193
bcad4cd6-2134-49d6-ad24-1eb7677f5a6f,4,1767702669729,1.72395,-7.66095,-5.19705,-0.0490875,0.041249998,0.031625,0.1209669113159179,-0.512111485004425,-0.4081578826904302,15.4212567,73.9813083,0.12610695,0.6659459617034145,0.0,0.07149325573961508,0.0024515628330174285
bcad4cd6-2134-49d6-ad24-1eb7677f5a6f,4,1767702669740,1.9540501,-7.7179503,-5.3689504,-0.0493625,0.0482625,0.0281875,0.0249414443969726,-0.7050257325172424,-0.2333083724975591,15.4212567,73.9813083,0.12610695,0.7430451909793517,0.0,0.07456849514875569,0.0031633114354785085
bcad4cd6-2134-49d6-ad24-1eb7677f5a6f,4,1767702669751,1.9540501,-7.7179503,-5.3689504,-0.0493625,0.0482625,0.0281875,0.0249414443969726,-0.7050257325172424,-0.2333083724975591,15.4212567,73.9813083,0.12610695,0.7430451909793517,0.0,0.07456849514875569,0.0003920675545593414
bcad4cd6-2134-49d6-ad24-1eb7677f5a6f,4,1767702669762,1.9540501,-7.7179503,-5.3689504,-0.0493625,0.0482625,0.0281875,0.0249414443969726,-0.7050257325172424,-0.2333083724975591,15.4212567,73.9813083,0.12610695,0.7430451909793517,0.0,0.07456849514875569,-0.0026750999763303115
bcad4cd6-2134-49d6-ad24-1eb7677f5a6f,4,1767702669772,2.01195,-7.6420503,-5.3689504,-0.04235,0.044275,-0.0103124995,-0.0077042579650878,-0.7609255909919739,-0.2865844345092778,15.4212567,73.9813083,0.12610695,0.8131406697000709,0.0,0.062130071390088554,-0.018306856763035475
bcad4cd6-2134-49d6-ad24-1eb7677f5a6f,4,1767702669783,2.01195,-7.6420503,-5.3689504,-0.04235,0.044275,-0.0103124995,-0.0077042579650878,-0.7609255909919739,-0.2865844345092778,15.4212567,73.9813083,0.12610695,0.8131406697000709,0.0,0.062130071390088554,-0.02140638229220562
bcad4cd6-2134-49d6-ad24-1eb7677f5a6f,4,1767702669794,1.57095,-7.623,-5.274,-0.0342375,0.0633875,-0.065175,0.0568022727966308,-0.3173598647117615,-0.4137693023681645,15.4212567,73.9813083,0.12610695,0.5245462968194209,0.0,0.09714917491929614,0.010860250069667935
bcad4cd6-2134-49d6-ad24-1eb7677f5a6f,4,1767702669805,1.57095,-7.623,-5.274,-0.0342375,0.0633875,-0.065175,0.0568022727966308,-0.3173598647117615,-0.4137693023681645,15.4212567,73.9813083,0.12610695,0.5245462968194209,0.0,0.09714917491929614,0.008716782205581567
bcad4cd6-2134-49d6-ad24-1eb7677f5a6f,4,1767702669816,1.8199501,-7.6800003,-5.427,-0.0438625,0.0405625,-0.074525,-0.0248775482177734,-0.5203382968902588,-0.2457128143310551,15.4212567,73.9813083,0.12610695,0.5759736302492244,0.0,0.09551550103255492,0.0057903525335826584
bcad4cd6-2134-49d6-ad24-1eb7677f5a6f,4,1767702669827,1.8199501,-7.6800003,-5.427,-0.0438625,0.0405625,-0.074525,-0.0248775482177734,-0.5203382968902588,-0.2457128143310551,15.4212567,73.9813083,0.12610695,0.5759736302492244,0.0,0.09551550103255492,0.0055408708778608
bcad4cd6-2134-49d6-ad24-1eb7677f5a6f,4,1767702669837,1.45605,-7.4890504,-5.274,-0.0462,0.0402875,-0.070675,-0.0080270767211914,-0.1649312376976013,-0.5367179489135747,15.4212567,73.9813083,0.12610695,0.5615451039900047,0.0,0.09355468070198306,0.004493047124382187
bcad4cd6-2134-49d6-ad24-1eb7677f5a6f,4,1767702669848,1.45605,-7.4890504,-5.274,-0.0462,0.0402875,-0.070675,-0.0080270767211914,-0.1649312376976013,-0.5367179489135747,15.4212567,73.9813083,0.12610695,0.5615451039900047,0.0,0.09355468070198306,0.006598793813243885
bcad4cd6-2134-49d6-ad24-1eb7677f5a6f,4,1767702669859,1.45605,-7.4890504,-5.274,-0.0462,0.0402875,-0.070675,-0.0080270767211914,-0.1649312376976013,-0.5367179489135747,15.4212567,73.9813083,0.12610695,0.5615451039900047,0.0,0.09355468070198306,0.009834150238607422
bcad4cd6-2134-49d6-ad24-1eb7677f5a6f,4,1767702669870,1.7629501,-7.4689503,-5.3310003,-0.04455,0.0284625,-0.047849998,-0.0486202239990234,-0.4396702647209167,-0.4763436889648442,15.4212567,73.9813083,0.12610695,0.6500593648876328,0.0,0.07130525026146395,-0.008199692626361818
bcad4cd6-2134-49d6-ad24-1eb7677f5a6f,5,1767702669881,1.7629501,-7.4689503,-5.3310003,-0.04455,0.0284625,-0.047849998,-0.0486202239990234,-0.4396702647209167,-0.4763436889648442,15.4212567,73.9813033,0.18221167,0.6500593648876328,0.0,0.07130525026146395,-0.0032220300797389132
bcad4cd6-2134-49d6-ad24-1eb7677f5a6f,5,1767702669891,1.5520501,-7.6039505,-5.2540503,-0.0510125,0.022824999,-0.0268125,0.0938353538513183,-0.2015535533428192,-0.4406581497192388,15.4212567,73.9813033,0.18221167,0.4935671316158541,0.0,0.06198520704047056,-0.007064487938084611
bcad4cd6-2134-49d6-ad24-1eb7677f5a6f,5,1767702669902,1.5520501,-7.6039505,-5.2540503,-0.0510125,0.022824999,-0.0268125,0.0938353538513183,-0.2015535533428192,-0.4406581497192388,15.4212567,73.9813033,0.18221167,0.4935671316158541,0.0,0.06198520704047056,-0.0013649729203994896
bcad4cd6-2134-49d6-ad24-1eb7677f5a6f,5,1767702669913,2.0689502,-7.79505,-5.2930503,-0.0512875,0.005225,0.0077,0.1901283264160156,-0.6628846526145935,-0.1879306411743169,15.4212567,73.9813033,0.18221167,0.7147606376052861,0.0,0.05212483363282803,-0.005570376143647814
bcad4cd6-2134-49d6-ad24-1eb7677f5a6f,5,1767702669923,2.0689502,-7.79505,-5.2930503,-0.0512875,0.005225,0.0077,0.1901283264160156,-0.6628846526145935,-0.1879306411743169,15.4212567,73.9813033,0.18221167,0.7147606376052861,0.0,0.05212483363282803,-0.00019200828806020402
bcad4cd6-2134-49d6-ad24-1eb7677f5a6f,5,1767702669934,1.9540501,-7.6990504,-5.235,-0.0413875,0.0154,-0.00275,0.1874241828918457,-0.5582518577575684,-0.3151507949829106,15.4212567,73.9813033,0.18221167,0.6679019273821666,0.0,0.04424531225169509,-0.0031515932437173357
bcad4cd6-2134-49d6-ad24-1eb7677f5a6f,5,1767702669945,1.9540501,-7.6990504,-5.235,-0.0413875,0.0154,-0.00275,0.1874241828918457,-0.5582518577575684,-0.3151507949829106,15.4212567,73.9813033,0.18221167,0.6679019273821666,0.0,0.04424531225169509,0.001185738153875778
bcad4cd6-2134-49d6-ad24-1eb7677f5a6f,5,1767702669956,1.6290001,-7.5840006,-5.21595,-0.034649998,0.00935,-0.009625,0.1349768638610839,-0.2418505847454071,-0.4665437316894536,15.4212567,73.9813033,0.18221167,0.5425619897285376,0.0,0.037157576433346724,-0.002214670754119257
bcad4cd6-2134-49d6-ad24-1eb7677f5a6f,5,1767702669967,1.6290001,-7.5840006,-5.21595,-0.034649998,0.00935,-0.009625,0.1349768638610839,-0.2418505847454071,-0.4665437316894536,15.4212567,73.9813033,0.18221167,0.5425619897285376,0.0,0.037157576433346724,0.0008041300498109603
bcad4cd6-2134-49d6-ad24-1eb7677f5a6f,5,1767702669977,1.6290001,-7.5840006,-5.21595,-0.034649998,0.00935,-0.009625,0.1349768638610839,-0.2418505847454071,-0.4665437316894536,15.4212567,73.9813033,0.18221167,0.5425619897285376,0.0,0.037157576433346724,0.0031720556949835165
bcad4cd6-2134-49d6-ad24-1eb7677f5a6f,5,1767702669988,1.8199501,-7.7760005,-5.2930503,-0.0303875,0.012375,-0.020075,0.1895976066589355,-0.3904784023761749,-0.2388778305053716,15.4212567,73.9813033,0.18221167,0.495462665677243,0.0,0.03846487236752515,0.006235423576507393
bcad4cd6-2134-49d6-ad24-1eb7677f5a6f,5,1767702669999,1.8199501,-7.7760005,-5.2930503,-0.0303875,0.012375,-0.020075,0.1895976066589355,-0.3904784023761749,-0.2388778305053716,15.4212567,73.9813033,0.18221167,0.495462665677243,0.0,0.03846487236752515,0.007425895309109318
bcad4cd6-2134-49d6-ad24-1eb7677f5a6f,5,1767702670010,1.60905,-7.5649505,-5.427,-0.0213125,0.0155375,-0.00495,-0.0440621376037597,-0.1840134263038635,-0.3636203384399419,15.4212567,73.9813033,0.18221167,0.4099050665184293,0.0,0.026835406881580908,-0.0035363282473064943
bcad4cd6-2134-49d6-ad24-1eb7677f5a6f,5,1767702670021,1.60905,-7.5649505,-5.427,-0.0213125,0.0155375,-0.00495,-0.0440621376037597,-0.1840134263038635,-0.3636203384399419,15.4212567,73.9813033,0.18221167,0.4099050665184293,0.0,0.026835406881580908,-0.0033603178976812273
bcad4cd6-2134-49d6-ad24-1eb7677f5a6f,5,1767702670032,1.9920001,-7.5460505,-5.2930503,-0.0198,0.01925,0.0070125,0.0658631324768066,-0.5617849826812744,-0.3968501663208013,15.4212567,73.9813033,0.18221167,0.6909633662465072,0.0,0.028491712062457743,-0.001998808286618018
bcad4cd6-2134-49d6-ad24-1eb7677f5a6f,5,1767702670043,1.9920001,-7.5460505,-5.2930503,-0.0198,0.01925,0.0070125,0.0658631324768066,-0.5617849826812744,-0.3968501663208013,15.4212567,73.9813033,0.18221167,0.6909633662465072,0.0,0.028491712062457743,-0.0027517234619890214
bcad4cd6-2134-49d6-ad24-1eb7677f5a6f,5,1767702670053,1.59,-7.623,-5.1780005,-0.0193875,0.0331375,0.0138875,0.1942276954650879,-0.1582704186439514,-0.4618898010253911,15.4212567,73.9813033,0.18221167,0.5254675169738715,0.0,0.04082685046326743,0.008385190897056671
bcad4cd6-2134-49d6-ad24-1eb7677f5a6f,5,1767702670064,1.59,-7.623,-5.1780005,-0.0193875,0.0331375,0.0138875,0.1942276954650879,-0.1582704186439514,-0.4618898010253911,15.4212567,73.9813033,0.18221167,0.5254675169738715,0.0,0.04082685046326743,0.00676494401648836
bcad4cd6-2134-49d6-ad24-1eb7677f5a6f,5,1767702670075,2.088,-7.8520503,-5.3880005,-0.0143,0.031075,0.011275,0.1602625846862793,-0.5887614488601685,-0.0800099945068364,15.4212567,73.9813033,0.18221167,0.6154069701711508,0.0,0.03601765192235607,-4.1845457262686174e-05
bcad4cd6-2134-49d6-ad24-1eb7677f5a6f,5,1767702670086,2.088,-7.8520503,-5.3880005,-0.0143,0.031075,0.011275,0.1602625846862793,-0.5887614488601685,-0.0800099945068364,15.4212567,73.9813033,0.18221167,0.6154069701711508,0.0,0.03601765192235607,-0.0023413910719812486
bcad4cd6-2134-49d6-ad24-1eb7677f5a6f,5,1767702670097,2.088,-7.8520503,-5.3880005,-0.0143,0.031075,0.011275,0.1602625846862793,-0.5887614488601685,-0.0800099945068364,15.4212567,73.9813033,0.18221167,0.6154069701711508,0.0,0.03601765192235607,-0.00483129354877467
bcad4cd6-2134-49d6-ad24-1eb7677f5a6f,5,1767702670108,1.9540501,-7.6420503,-5.2930503,-0.0048125,0.0243375,-0.0026125,0.1135177612304687,-0.4849514067173004,-0.3238206481933599,15.4212567,73.9813033,0.18221167,0.5940740367902253,0.0,0.024945925894822987,-0.0184357268371602
bcad4cd6-2134-49d6-ad24-1eb7677f5a6f,5,1767702670119,1.9540501,-7.6420503,-5.2930503,-0.0048125,0.0243375,-0.0026125,0.1135177612304687,-0.4849514067173004,-0.3238206481933599,15.4212567,73.9813033,0.18221167,0.5940740367902253,0.0,0.024945925894822987,-0.02083489389308095
bcad4cd6-2134-49d6-ad24-1eb7677f5a6f,5,1767702670130,1.5139501,-7.5079503,-5.19705,0.0064625,0.033275,-0.0507375,0.1016650199890136,-0.0659095346927642,-0.5549455261230474,15.4212567,73.9813033,0.18221167,0.5680179398722977,0.0,0.06101871383026686,0.013163458301058445
bcad4cd6-2134-49d6-ad24-1eb7677f5a6f,5,1767702670140,1.5139501,-7.5079503,-5.19705,0.0064625,0.033275,-0.0507375,0.1016650199890136,-0.0659095346927642,-0.5549455261230474,15.4212567,73.9813033,0.18221167,0.5680179398722977,0.0,0.06101871383026686,0.011600736408275988
bcad4cd6-2134-49d6-ad24-1eb7677f5a6f,5,1767702670151,1.7820001,-7.8520503,-5.274,0.0191125,0.010175,-0.0592625,0.2349414825439453,-0.2594265639781952,-0.1911216354370122,15.4212567,73.9813033,0.18221167,0.3987820480533167,0.0,0.06309407410763708,0.012786767036583841
bcad4cd6-2134-49d6-ad24-1eb7677f5a6f,5,1767702670162,1.7820001,-7.8520503,-5.274,0.0191125,0.010175,-0.0592625,0.2349414825439453,-0.2594265639781952,-0.1911216354370122,15.4212567,73.9813033,0.18221167,0.3987820480533167,0.0,0.06309407410763708,0.01268784719287386
bcad4cd6-2134-49d6-ad24-1eb7677f5a6f,5,1767702670173,1.437,-7.5840006,-5.235,0.02585,-0.0072875,-0.04015,0.0943970680236816,0.0604882836341857,-0.4839759445190434,15.4212567,73.9813033,0.18221167,0.4967920629212765,0.0,0.048304789164740174,-0.001351708691218871
bcad4cd6-2134-49d6-ad24-1eb7677f5a6f,5,1767702670183,1.437,-7.5840006,-5.235,0.02585,-0.0072875,-0.04015,0.0943970680236816,0.0604882836341857,-0.4839759445190434,15.4212567,73.9813033,0.18221167,0.4967920629212765,0.0,0.048304789164740174,0.00023954464988766434
bcad4cd6-2134-49d6-ad24-1eb7677f5a6f,5,1767702670194,1.437,-7.5840006,-5.235,0.02585,-0.0072875,-0.04015,0.0943970680236816,0.0604882836341857,-0.4839759445190434,15.4212567,73.9813033,0.18221167,0.4967920629212765,0.0,0.048304789164740174,0.002601352300636009
bcad4cd6-2134-49d6-ad24-1eb7677f5a6f,5,1767702670205,1.8580501,-7.5649505,-5.21595,0.0199375,-0.017324999,-0.010725,0.1031355857849121,-0.3458534181118011,-0.4421439743041997,15.4212567,73.9813033,0.18221167,0.5707388456100795,0.0,0.02850763269021125,-0.014189750525642399
bcad4cd6-2134-49d6-ad24-1eb7677f5a6f,5,1767702670216,1.8580501,-7.5649505,-5.21595,0.0199375,-0.017324999,-0.010725,0.1031355857849121,-0.3458534181118011,-0.4421439743041997,15.4212567,73.9813033,0.18221167,0.5707388456100795,0.0,0.02850763269021125,-0.010707898221737875
bcad4cd6-2134-49d6-ad24-1eb7677f5a6f,5,1767702670227,1.60905,-7.7179503,-5.1589503,0.0149875,-0.021175,0.0081124995,0.2230887413024902,-0.0809784233570098,-0.3911748504638677,15.4212567,73.9813033,0.18221167,0.4575410967123562,0.0,0.027181214641503793,-0.008272071389091246
bcad4cd6-2134-49d6-ad24-1eb7677f5a6f,5,1767702670238,1.60905,-7.7179503,-5.1589503,0.0149875,-0.021175,0.0081124995,0.2230887413024902,-0.0809784233570098,-0.3911748504638677,15.4212567,73.9813033,0.18221167,0.4575410967123562,0.0,0.027181214641503793,-0.004436979576965447
bcad4cd6-2134-49d6-ad24-1eb7677f5a6f,5,1767702670248,1.9729501,-7.79505,-5.46495,0.013062499,-0.014162499,0.0339625,0.0166602134704589,-0.3984908163547516,-0.0959907150268559,15.4212567,73.9813033,0.18221167,0.4102276329104667,0.0,0.039046852168900914,0.011129962798581704
bcad4cd6-2134-49d6-ad24-1eb7677f5a6f,5,1767702670259,1.9729501,-7.79505,-5.46495,0.013062499,-0.014162499,0.0339625,0.0166602134704589,-0.3984908163547516,-0.0959907150268559,15.4212567,73.9813033,0.18221167,0.4102276329104667,0.0,0.039046852168900914,0.014502738880328539
bcad4cd6-2134-49d6-ad24-1eb7677f5a6f,5,1767702670270,2.05005,-7.623,-5.31195,0.01485,-0.0028875,0.0187,0.0416622161865234,-0.5146865248680115,-0.3093143081665044,15.4212567,73.9813033,0.18221167,0.6019246633714274,0.0,0.024053069580616943,0.002379786697707096
bcad4cd6-2134-49d6-ad24-1eb7677f5a6f,5,1767702670281,2.05005,-7.623,-5.31195,0.01485,-0.0028875,0.0187,0.0416622161865234,-0.5146865248680115,-0.3093143081665044,15.4212567,73.9813033,0.18221167,0.6019246633714274,0.0,0.024053069580616943,0.004605229278735066
bcad4cd6-2134-49d6-ad24-1eb7677f5a6f,5,1767702670292,1.5139501,-7.4500504,-5.21595,0.0138875,-0.0048125,0.00495,0.0030403137207031,-0.0183958411216735,-0.5903955078125005,15.4212567,73.9813033,0.18221167,0.5906898561201762,0.0,0.015508878505552876,-0.0024641205675175934
bcad4cd6-2134-49d6-ad24-1eb7677f5a6f,5,1767702670302,1.5139501,-7.4500504,-5.21595,0.0138875,-0.0048125,0.00495,0.0030403137207031,-0.0183958411216735,-0.5903955078125005,15.4212567,73.9813033,0.18221167,0.5906898561201762,0.0,0.015508878505552876,-0.001799376729826836
bcad4cd6-2134-49d6-ad24-1eb7677f5a6f,5,1767702670313,1.5139501,-7.4500504,-5.21595,0.0138875,-0.0048125,0.00495,0.0030403137207031,-0.0183958411216735,-0.5903955078125005,15.4212567,73.9813033,0.18221167,0.5906898561201762,0.0,0.015508878505552876,-0.0019529123940195696
bcad4cd6-2134-49d6-ad24-1eb7677f5a6f,5,1767702670324,1.9729501,-7.872,-5.31195,0.0100375,0.0034375,0.002475,0.1684341430664062,-0.3976640403270721,-0.1202483749389653,15.4212567,73.9813033,0.18221167,0.4482927851251098,0.0,0.010894651784247167,-0.007493671816777669
bcad4cd6-2134-49d6-ad24-1eb7677f5a6f,5,1767702670334,1.9729501,-7.872,-5.31195,0.0100375,0.0034375,0.002475,0.1684341430664062,-0.3976640403270721,-0.1202483749389653,15.4212567,73.9813033,0.18221167,0.4482927851251098,0.0,0.010894651784247167,-0.00909720860744885
bcad4cd6-2134-49d6-ad24-1eb7677f5a6f,5,1767702670345,1.4940001,-7.5460505,-5.19705,0.006325,0.0122375,0.0121,0.0592479705810546,0.0251992046833038,-0.5266748046875005,15.4212567,73.9813033,0.18221167,0.5305955821784246,0.0,0.018334994716388657,-0.0037991839989319986
bcad4cd6-2134-49d6-ad24-1eb7677f5a6f,5,1767702670356,1.4940001,-7.5460505,-5.19705,0.006325,0.0122375,0.0121,0.0592479705810546,0.0251992046833038,-0.5266748046875005,15.4212567,73.9813033,0.18221167,0.5305955821784246,0.0,0.018334994716388657,-0.006313804393081576
bcad4cd6-2134-49d6-ad24-1eb7677f5a6f,5,1767702670366,1.743,-7.5079503,-5.1780005,0.0020625,0.0149875,0.0347875,0.057708740234375,-0.222289353609085,-0.5274186706542974,15.4212567,73.9813033,0.18221167,0.57525064935394,0.0,0.037934802210503216,0.010575821482496871
bcad4cd6-2134-49d6-ad24-1eb7677f5a6f,5,1767702670377,1.743,-7.5079503,-5.1780005,0.0020625,0.0149875,0.0347875,0.057708740234375,-0.222289353609085,-0.5274186706542974,15.4212567,73.9813033,0.18221167,0.57525064935394,0.0,0.037934802210503216,0.007837616333664747
bcad4cd6-2134-49d6-ad24-1eb7677f5a6f,5,1767702670387,1.743,-7.5079503,-5.1780005,0.0020625,0.0149875,0.0347875,0.057708740234375,-0.222289353609085,-0.5274186706542974,15.4212567,73.9813033,0.18221167,0.57525064935394,0.0,0.037934802210503216,0.005211946360982631
bcad4cd6-2134-49d6-ad24-1eb7677f5a6f,5,1767702670398,1.743,-7.5079503,-5.1780005,0.0020625,0.0149875,0.0347875,0.057708740234375,-0.222289353609085,-0.5274186706542974,15.4212567,73.9813033,0.18221167,0.57525064935394,0.0,0.037934802210503216,0.002799359975898504
bcad4cd6-2134-49d6-ad24-1eb7677f5a6f,5,1767702670408,1.6480501,-7.7760005,-5.19705,0.00275,0.005775,0.04675,0.18756103515625,-0.0911699831485748,-0.3153634643554692,15.4212567,73.9813033,0.18221167,0.3780809733198416,0.0,0.04718554466147445,0.009905073259733164
bcad4cd6-2134-49d6-ad24-1eb7677f5a6f,5,1767702670419,1.9159501,-7.7569504,-5.4079504,0.0103124995,-0.0174625,0.0375375,0.0059494972229003,-0.3384523391723633,-0.1677737808227544,15.4212567,73.9813033,0.18221167,0.3778007728155295,0.0,0.042665565253931656,0.003517765043099188
bcad4cd6-2134-49d6-ad24-1eb7677f5a6f,5,1767702670430,1.9159501,-7.7569504,-5.4079504,0.0103124995,-0.0174625,0.0375375,0.0059494972229003,-0.3384523391723633,-0.1677737808227544,15.4212567,73.9813033,0.18221167,0.3778007728155295,0.0,0.042665565253931656,0.001902741410040644
bcad4cd6-2134-49d6-ad24-1eb7677f5a6f,5,1767702670440,2.01195,-7.5840006,-5.31195,0.0103124995,-0.0209,0.0114124995,-0.0120472908020019,-0.4710786342620849,-0.3463979339599614,15.4212567,73.9813033,0.18221167,0.5848519005061272,0.0,0.025950005602600558,-0.01622284412236936
bcad4cd6-2134-49d6-ad24-1eb7677f5a6f,5,1767702670451,2.01195,-7.5840006,-5.31195,0.0103124995,-0.0209,0.0114124995,-0.0120472908020019,-0.4710786342620849,-0.3463979339599614,15.4212567,73.9813033,0.18221167,0.5848519005061272,0.0,0.025950005602600558,-0.01748179454895176
bcad4cd6-2134-49d6-ad24-1eb7677f5a6f,5,1767702670461,1.57095,-7.5840006,-5.235,0.01155,-0.038225,-0.01265,0.0359830856323242,-0.0429066121578216,-0.4618955230712895,15.4212567,73.9813033,0.18221167,0.4652775881683805,0.0,0.041887654804249906,-0.002698926369804979
bcad4cd6-2134-49d6-ad24-1eb7677f5a6f,5,1767702670472,1.57095,-7.5840006,-5.235,0.01155,-0.038225,-0.01265,0.0359830856323242,-0.0429066121578216,-0.4618955230712895,15.4212567,73.9813033,0.18221167,0.4652775881683805,0.0,0.041887654804249906,-0.0037801211403372093
bcad4cd6-2134-49d6-ad24-1eb7677f5a6f,5,1767702670482,2.0689502,-7.833,-5.4079504,0.006875,-0.038225,-0.0391875,0.045992374420166,-0.4788836240768432,-0.0811286544799809,15.4212567,73.9813033,0.18221167,0.4878797828271922,0.0,0.0551731493232895,0.00848716669065035
bcad4cd6-2134-49d6-ad24-1eb7677f5a6f,5,1767702670493,2.0689502,-7.833,-5.4079504,0.006875,-0.038225,-0.0391875,0.045992374420166,-0.4788836240768432,-0.0811286544799809,15.4212567,73.9813033,0.18221167,0.4878797828271922,0.0,0.0551731493232895,0.007539591507400827
bcad4cd6-2134-49d6-ad24-1eb7677f5a6f,5,1767702670503,2.0689502,-7.833,-5.4079504,0.006875,-0.038225,-0.0391875,0.045992374420166,-0.4788836240768432,-0.0811286544799809,15.4212567,73.9813033,0.18221167,0.4878797828271922,0.0,0.0551731493232895,0.006682900506827572
bcad4cd6-2134-49d6-ad24-1eb7677f5a6f,5,1767702670514,1.5139501,-7.5460505,-5.274,0.00055,-0.032725,-0.0430375,-0.0240039825439453,0.0258011817932128,-0.4800057983398442,15.4212567,73.9813033,0.18221167,0.4812976818973551,0.0,0.05406897938050985,0.0048384236412270885
bcad4cd6-2134-49d6-ad24-1eb7677f5a6f,5,1767702670525,1.5139501,-7.5460505,-5.274,0.00055,-0.032725,-0.0430375,-0.0240039825439453,0.0258011817932128,-0.4800057983398442,15.4212567,73.9813033,0.18221167,0.4812976818973551,0.0,0.05406897938050985,0.00423824145472597
bcad4cd6-2134-49d6-ad24-1eb7677f5a6f,5,1767702670535,1.8010501,-7.5460505,-5.235,-0.0020625,-0.03575,-0.0242,0.0191287994384765,-0.2490679025650024,-0.4542794799804692,15.4212567,73.9813033,0.18221167,0.5184308796622868,0.0,0.04321986124746353,-0.007054135843025332
bcad4cd6-2134-49d6-ad24-1eb7677f5a6f,5,1767702670546,1.8010501,-7.5460505,-5.235,-0.0020625,-0.03575,-0.0242,0.0191287994384765,-0.2490679025650024,-0.4542794799804692,15.4212567,73.9813033,0.18221167,0.5184308796622868,0.0,0.04321986124746353,-0.007333349438287404
bcad4cd6-2134-49d6-ad24-1eb7677f5a6f,5,1767702670557,1.4940001,-7.7179503,-5.235,-0.0004125,-0.0419375,-0.013475,0.105290412902832,0.0802511572837829,-0.3661389923095708,15.4212567,73.9813033,0.18221167,0.389338003518926,0.0,0.04405110313601693,-0.006620219193735653
bcad4cd6-2134-49d6-ad24-1eb7677f5a6f,5,1767702670568,1.4940001,-7.7179503,-5.235,-0.0004125,-0.0419375,-0.013475,0.105290412902832,0.0802511572837829,-0.3661389923095708,15.4212567,73.9813033,0.18221167,0.389338003518926,0.0,0.04405110313601693,-0.006588794356306055
bcad4cd6-2134-49d6-ad24-1eb7677f5a6f,5,1767702670579,1.9729501,-7.7569504,-5.274,-0.00055,-0.0592625,0.016775,0.1117563247680664,-0.3791719675064087,-0.2328582382202153,15.4212567,73.9813033,0.18221167,0.4587851525228003,0.0,0.0615934008742008,0.011117016610524865
bcad4cd6-2134-49d6-ad24-1eb7677f5a6f,5,1767702670590,1.9729501,-7.7569504,-5.274,-0.00055,-0.0592625,0.016775,0.1117563247680664,-0.3791719675064087,-0.2328582382202153,15.4212567,73.9813033,0.18221167,0.4587851525228003,0.0,0.0615934008742008,0.011392964839201882
bcad4cd6-2134-49d6-ad24-1eb7677f5a6f,5,1767702670600,1.9729501,-7.7569504,-5.274,-0.00055,-0.0592625,0.016775,0.1117563247680664,-0.3791719675064087,-0.2328582382202153,15.4212567,73.9813033,0.18221167,0.4587851525228003,0.0,0.0615934008742008,0.011763885007564676
bcad4cd6-2134-49d6-ad24-1eb7677f5a6f,5,1767702670611,1.8199501,-7.5840006,-5.21595,0.00165,-0.039049998,-0.0075625,0.0585269927978515,-0.2684080004692077,-0.4313006973266606,15.4212567,73.9813033,0.18221167,0.5113595165011616,0.0,0.0398097506906286,-0.009564367120994772
bcad4cd6-2134-49d6-ad24-1eb7677f5a6f,5,1767702670622,1.8199501,-7.5840006,-5.21595,0.00165,-0.039049998,-0.0075625,0.0585269927978515,-0.2684080004692077,-0.4313006973266606,15.4212567,73.9813033,0.18221167,0.5113595165011616,0.0,0.0398097506906286,-0.009023562556429604
bcad4cd6-2134-49d6-ad24-1eb7677f5a6f,5,1767702670633,1.5139501,-7.5460505,-5.1780005,0.006875,-0.039049998,-0.0171875,0.057507038116455,0.0240779519081115,-0.5340781784057622,15.4212567,73.9813033,0.18221167,0.5377046660112165,0.0,0.043215484783234864,-0.004976251867472104
bcad4cd6-2134-49d6-ad24-1eb7677f5a6f,5,1767702670644,1.5139501,-7.5460505,-5.1780005,0.006875,-0.039049998,-0.0171875,0.057507038116455,0.0240779519081115,-0.5340781784057622,15.4212567,73.9813033,0.18221167,0.5377046660112165,0.0,0.043215484783234864,-0.004203767844886137
bcad4cd6-2134-49d6-ad24-1eb7677f5a6f,5,1767702670655,1.6860001,-7.79505,-5.274,0.0066,-0.0350625,-0.0297,0.1231527328491211,-0.1012436747550964,-0.2499232864379887,15.4212567,73.9813033,0.18221167,0.2964431250511432,0.0,0.04642228889499095,-5.1916344575798425e-05
bcad4cd6-2134-49d6-ad24-1eb7677f5a6f,5,1767702670666,1.6860001,-7.79505,-5.274,0.0066,-0.0350625,-0.0297,0.1231527328491211,-0.1012436747550964,-0.2499232864379887,15.4212567,73.9813033,0.18221167,0.2964431250511432,0.0,0.04642228889499095,0.0011118944206579902
bcad4cd6-2134-49d6-ad24-1eb7677f5a6f,5,1767702670676,1.59,-7.6420503,-5.4079504,0.00715,-0.038225,-0.021175,-0.0790371894836425,-0.0144148766994476,-0.314287719726563,15.4212567,73.9813033,0.18221167,0.3243939530303487,0.0,0.044279269980432155,0.0003922748308372373
bcad4cd6-2134-49d6-ad24-1eb7677f5a6f,5,1767702670687,1.59,-7.6420503,-5.4079504,0.00715,-0.038225,-0.021175,-0.0790371894836425,-0.0144148766994476,-0.314287719726563,15.4212567,73.9813033,0.18221167,0.3243939530303487,0.0,0.044279269980432155,0.0020994538512546655
bcad4cd6-2134-49d6-ad24-1eb7677f5a6f,5,1767702670698,1.5330001,-7.5270004,-5.1780005,0.0064625,-0.0389125,-0.0144375,0.0428509712219238,0.0140642523765563,-0.5463357543945317,15.4212567,73.9813033,0.18221167,0.548194094695862,0.0,0.042004618421668825,0.0018128136581581859
bcad4cd6-2134-49d6-ad24-1eb7677f5a6f,5,1767702670709,1.9350001,-7.5649505,-5.3500504,0.0064625,-0.0389125,-0.0144375,-0.0591554641723632,-0.365908682346344,-0.3517575836181645,15.4212567,73.9813033,0.18221167,0.511000910361983,0.0,0.042004618421668825,0.00404398439195924
bcad4cd6-2134-49d6-ad24-1eb7677f5a6f,5,1767702670720,1.9350001,-7.5649505,-5.3500504,0.0064625,-0.0389125,-0.0144375,-0.0591554641723632,-0.365908682346344,-0.3517575836181645,15.4212567,73.9813033,0.18221167,0.511000910361983,0.0,0.042004618421668825,0.006443044288571704
bcad4cd6-2134-49d6-ad24-1eb7677f5a6f,5,1767702670731,1.60905,-7.6990504,-5.235,0.0011,-0.030524999,-0.0108624995,0.0951032638549804,-0.0310304164886474,-0.3622670745849614,15.4212567,73.9813033,0.18221167,0.375825692138889,0.0,0.032418813354863886,-0.0006857702839866877
bcad4cd6-2134-49d6-ad24-1eb7677f5a6f,5,1767702670742,1.60905,-7.6990504,-5.235,0.0011,-0.030524999,-0.0108624995,0.0951032638549804,-0.0310304164886474,-0.3622670745849614,15.4212567,73.9813033,0.18221167,0.375825692138889,0.0,0.032418813354863886,0.0016932736268529974
bcad4cd6-2134-49d6-ad24-1eb7677f5a6f,5,1767702670753,2.0689502,-7.833,-5.3500504,-0.001375,-0.03135,0.0064625,0.0944304466247558,-0.450340986251831,-0.1121764755249028,15.4212567,73.9813033,0.18221167,0.4736113119523349,0.0,0.032038680235771264,0.0034660833519544786
bcad4cd6-2134-49d6-ad24-1eb7677f5a6f,5,1767702670764,2.0689502,-7.833,-5.3500504,-0.001375,-0.03135,0.0064625,0.0944304466247558,-0.450340986251831,-0.1121764755249028,15.4212567,73.9813033,0.18221167,0.4736113119523349,0.0,0.032038680235771264,0.005249057741909123
bcad4cd6-2134-49d6-ad24-1eb7677f5a6f,5,1767702670775,1.7050501,-7.6039505,-5.1780005,-0.00385,-0.0078375,0.0044,0.0921258926391601,-0.1407324969768524,-0.4552846527099614,15.4212567,73.9813033,0.18221167,0.485362679645986,0.0,0.009777980683658564,-0.015721331721368925
bcad4cd6-2134-49d6-ad24-1eb7677f5a6f,5,1767702670786,1.7050501,-7.6039505,-5.1780005,-0.00385,-0.0078375,0.0044,0.0921258926391601,-0.1407324969768524,-0.4552846527099614,15.4212567,73.9813033,0.18221167,0.485362679645986,0.0,0.009777980683658564,-0.015010792552879574
bcad4cd6-2134-49d6-ad24-1eb7677f5a6f,5,1767702670797,1.60905,-7.5270004,-5.1589503,-0.0037125,0.0199375,-0.000275,0.0613517761230468,-0.0562706589698791,-0.5443311309814458,15.4212567,73.9813033,0.18221167,0.5506603378216892,0.0,0.02028206566156416,-0.004417893670331607
bcad4cd6-2134-49d6-ad24-1eb7677f5a6f,5,1767702670808,1.60905,-7.5270004,-5.1589503,-0.0037125,0.0199375,-0.000275,0.0613517761230468,-0.0562706589698791,-0.5443311309814458,15.4212567,73.9813033,0.18221167,0.5506603378216892,0.0,0.02028206566156416,-0.004944306860969196
bcad4cd6-2134-49d6-ad24-1eb7677f5a6f,5,1767702670818,1.6669501,-7.7760005,-5.21595,-0.0028875,0.0394625,-0.00605,0.1550602912902832,-0.0664891898632049,-0.3009191131591802,15.4212567,73.9813033,0.18221167,0.3449881432284308,0.0,0.04002785358347359,0.013711786846986667
bcad4cd6-2134-49d6-ad24-1eb7677f5a6f,5,1767702670830,1.6669501,-7.7760005,-5.21595,-0.0028875,0.0394625,-0.00605,0.1550602912902832,-0.0664891898632049,-0.3009191131591802,15.4212567,73.9813033,0.18221167,0.3449881432284308,0.0,0.04002785358347359,0.01214821594491554
bcad4cd6-2134-49d6-ad24-1eb7677f5a6f,5,1767702670841,1.6669501,-7.7760005,-5.21595,-0.0028875,0.0394625,-0.00605,0.1550602912902832,-0.0664891898632049,-0.3009191131591802,15.4212567,73.9813033,0.18221167,0.3449881432284308,0.0,0.04002785358347359,0.010226883517546487
bcad4cd6-2134-49d6-ad24-1eb7677f5a6f,5,1767702670852,1.8010501,-7.7179503,-5.427,0.00385,0.028875,0.009075,-0.0475807189941406,-0.1805071234703064,-0.2064576721191411,15.4212567,73.9813033,0.18221167,0.2783370561394558,0.0,0.030511370831216352,-0.001436987305111891
bcad4cd6-2134-49d6-ad24-1eb7677f5a6f,5,1767702670863,1.8010501,-7.7179503,-5.427,0.00385,0.028875,0.009075,-0.0475807189941406,-0.1805071234703064,-0.2064576721191411,15.4212567,73.9813033,0.18221167,0.2783370561394558,0.0,0.030511370831216352,-0.003672823966760579
bcad4cd6-2134-49d6-ad24-1eb7677f5a6f,5,1767702670874,2.01195,-7.6039505,-5.3880005,0.0031625,0.0287375,0.0154,-0.0714430809020996,-0.4035485982894897,-0.2847371673583989,15.4212567,73.9813033,0.18221167,0.4990298983683049,0.0,0.032756759798551506,-0.003615687469832853
bcad4cd6-2134-49d6-ad24-1eb7677f5a6f,5,1767702670884,1.743,-7.5079503,-5.274,0.0009625,0.0331375,0.01485,-0.045058250427246,-0.159853309392929,-0.4721789932250981,15.4212567,73.9813033,0.18221167,0.5005360407588081,0.0,0.03632551186838253,-0.002058649405226766
bcad4cd6-2134-49d6-ad24-1eb7677f5a6f,5,1767702670895,1.743,-7.5079503,-5.274,0.0009625,0.0331375,0.01485,-0.045058250427246,-0.159853309392929,-0.4721789932250981,15.4212567,73.9813033,0.18221167,0.5005360407588081,0.0,0.03632551186838253,-0.0037764034506889716
bcad4cd6-2134-49d6-ad24-1eb7677f5a6f,6,1767702670907,1.4940001,-7.6800003,-5.235,0.0001375,0.036025,0.01155,0.0712447166442871,0.1107854843139648,-0.3971181488037114,15.4212567,73.9813033,0.13691612,0.4183922290072931,0.0,0.03783149522884339,-0.00359282373397321
bcad4cd6-2134-49d6-ad24-1eb7677f5a6f,6,1767702670918,1.4940001,-7.6800003,-5.235,0.0001375,0.036025,0.01155,0.0712447166442871,0.1107854843139648,-0.3971181488037114,15.4212567,73.9813033,0.13691612,0.4183922290072931,0.0,0.03783149522884339,-0.0044398553150142885
bcad4cd6-2134-49d6-ad24-1eb7677f5a6f,6,1767702670929,2.01195,-7.79505,-5.3500504,-0.0119624995,0.0374,0.0143,0.0604252815246582,-0.3635799586772918,-0.1509118652343755,15.4212567,73.9813033,0.13691612,0.3982662326480036,0.0,0.04178936939327394,-0.0008013407159367929
bcad4cd6-2134-49d6-ad24-1eb7677f5a6f,6,1767702670940,2.01195,-7.79505,-5.3500504,-0.0119624995,0.0374,0.0143,0.0604252815246582,-0.3635799586772918,-0.1509118652343755,15.4212567,73.9813033,0.13691612,0.3982662326480036,0.0,0.04178936939327394,-0.0005752508999557634
bcad4cd6-2134-49d6-ad24-1eb7677f5a6f,6,1767702670950,1.8769501,-7.6420503,-5.2930503,-0.01045,0.048125,0.0039875,0.0172510147094726,-0.2561655938625335,-0.329790649414063,15.4212567,73.9813033,0.13691612,0.4179477017862407,0.0,0.049407674315332835,0.007791821569045376
bcad4cd6-2134-49d6-ad24-1eb7677f5a6f,6,1767702670961,1.8769501,-7.6420503,-5.2930503,-0.01045,0.048125,0.0039875,0.0172510147094726,-0.2561655938625335,-0.329790649414063,15.4212567,73.9813033,0.13691612,0.4179477017862407,0.0,0.049407674315332835,0.008996285239004349
bcad4cd6-2134-49d6-ad24-1eb7677f5a6f,6,1767702670972,1.4940001,-7.5079503,-5.2540503,-0.0026125,0.0402875,-0.000275,-0.0406050682067871,0.1033316552639007,-0.5259214019775396,15.4212567,73.9813033,0.13691612,0.5375123473946215,0.0,0.04037305335864504,0.001510866366737099
bcad4cd6-2134-49d6-ad24-1eb7677f5a6f,6,1767702670982,1.4940001,-7.5079503,-5.2540503,-0.0026125,0.0402875,-0.000275,-0.0406050682067871,0.1033316552639007,-0.5259214019775396,15.4212567,73.9813033,0.13691612,0.5375123473946215,0.0,0.04037305335864504,0.003255005620519819
bcad4cd6-2134-49d6-ad24-1eb7677f5a6f,6,1767702670994,1.743,-7.7569504,-5.3880005,-0.0045375,0.0306625,0.0067375,-0.0019664764404296,-0.0875130593776702,-0.20629077911377,15.4212567,73.9813033,0.13691612,0.2240943732863381,0.0,0.031720209941770564,-0.003637247420303102
bcad4cd6-2134-49d6-ad24-1eb7677f5a6f,6,1767702671005,1.743,-7.7569504,-5.3880005,-0.0045375,0.0306625,0.0067375,-0.0019664764404296,-0.0875130593776702,-0.20629077911377,15.4212567,73.9813033,0.13691612,0.2240943732863381,0.0,0.031720209941770564,-0.0020530567148643146
bcad4cd6-2134-49d6-ad24-1eb7677f5a6f,6,1767702671015,1.743,-7.7569504,-5.3880005,-0.0045375,0.0306625,0.0067375,-0.0019664764404296,-0.0875130593776702,-0.20629077911377,15.4212567,73.9813033,0.13691612,0.2240943732863381,0.0,0.031720209941770564,-0.0008357002089659411
bcad4cd6-2134-49d6-ad24-1eb7677f5a6f,6,1767702671026,1.5139501,-7.5649505,-5.44605,-0.0077,0.022275,0.00935,-0.1660928726196289,0.118829607963562,-0.3686919784545903,15.4212567,73.9813033,0.13691612,0.4214749020292598,0.0,0.02535523861059091,-0.006521093650549076
bcad4cd6-2134-49d6-ad24-1eb7677f5a6f,6,1767702671037,1.5139501,-7.5649505,-5.44605,-0.0077,0.022275,0.00935,-0.1660928726196289,0.118829607963562,-0.3686919784545903,15.4212567,73.9813033,0.13691612,0.4214749020292598,0.0,0.02535523861059091,-0.0065155580952313275
bcad4cd6-2134-49d6-ad24-1eb7677f5a6f,6,1767702671048,1.9540501,-7.5079503,-5.3500504,-0.009075,-0.0083875,0.0323125,-0.0999140739440918,-0.3243705332279205,-0.3921723937988286,15.4212567,73.9813033,0.13691612,0.5186504135316721,0.0,0.03459484697899385,0.0019655142768991492
bcad4cd6-2134-49d6-ad24-1eb7677f5a6f,6,1767702671058,1.9540501,-7.5079503,-5.3500504,-0.009075,-0.0083875,0.0323125,-0.0999140739440918,-0.3243705332279205,-0.3921723937988286,15.4212567,73.9813033,0.13691612,0.5186504135316721,0.0,0.03459484697899385,0.00040600383506369744
bcad4cd6-2134-49d6-ad24-1eb7677f5a6f,6,1767702671069,1.5330001,-7.6420503,-5.235,-0.025575,-0.003575,0.0268125,0.0557622909545898,0.0966842472553253,-0.4215064620971684,15.4212567,73.9813033,0.13691612,0.4360332261989961,0.0,0.037225950709820696,0.0006948955993896695
bcad4cd6-2134-49d6-ad24-1eb7677f5a6f,6,1767702671080,1.5330001,-7.6420503,-5.235,-0.025575,-0.003575,0.0268125,0.0557622909545898,0.0966842472553253,-0.4215064620971684,15.4212567,73.9813033,0.13691612,0.4360332261989961,0.0,0.037225950709820696,-0.002358791835733059
bcad4cd6-2134-49d6-ad24-1eb7677f5a6f,6,1767702671090,2.0689502,-7.8139505,-5.3689504,-0.04455,0.0031625,0.0336875,0.0659232139587402,-0.3929735422134399,-0.1143689727783208,15.4212567,73.9813033,0.13691612,0.4145531774728019,0.0,0.05594239503721663,0.012711224459963047
bcad4cd6-2134-49d6-ad24-1eb7677f5a6f,6,1767702671101,2.0689502,-7.8139505,-5.3689504,-0.04455,0.0031625,0.0336875,0.0659232139587402,-0.3929735422134399,-0.1143689727783208,15.4212567,73.9813033,0.13691612,0.4145531774728019,0.0,0.05594239503721663,0.008630797399034332
bcad4cd6-2134-49d6-ad24-1eb7677f5a6f,6,1767702671112,2.0689502,-7.8139505,-5.3689504,-0.04455,0.0031625,0.0336875,0.0659232139587402,-0.3929735422134399,-0.1143689727783208,15.4212567,73.9813033,0.13691612,0.4145531774728019,0.0,0.05594239503721663,0.004306466845500986
bcad4cd6-2134-49d6-ad24-1eb7677f5a6f,6,1767702671123,1.72395,-7.5649505,-5.19705,-0.0367125,0.00715,0.0292875,0.0637259483337402,-0.1099910140037536,-0.4722457504272466,15.4212567,73.9813033,0.13691612,0.4890552815880856,0.0,0.0475046083290874,-0.008487525674981235
bcad4cd6-2134-49d6-ad24-1eb7677f5a6f,6,1767702671133,1.72395,-7.5649505,-5.19705,-0.0367125,0.00715,0.0292875,0.0637259483337402,-0.1099910140037536,-0.4722457504272466,15.4212567,73.9813033,0.13691612,0.4890552815880856,0.0,0.0475046083290874,-0.01265202908895059
bcad4cd6-2134-49d6-ad24-1eb7677f5a6f,6,1767702671144,1.4940001,-7.5079503,-5.19705,-0.03135,0.0242,0.039049998,0.0309185981750488,0.1052962839603424,-0.5580468750000005,15.4212567,73.9813033,0.13691612,0.5687350717392355,0.0,0.055618026248690305,-0.008288153964722017
bcad4cd6-2134-49d6-ad24-1eb7677f5a6f,6,1767702671155,1.4940001,-7.5079503,-5.19705,-0.03135,0.0242,0.039049998,0.0309185981750488,0.1052962839603424,-0.5580468750000005,15.4212567,73.9813033,0.13691612,0.5687350717392355,0.0,0.055618026248690305,-0.011413516336986207
bcad4cd6-2134-49d6-ad24-1eb7677f5a6f,6,1767702671165,1.5520501,-7.7569504,-5.274,-0.0279125,0.0521125,0.0551375,0.1143469810485839,0.087976187467575,-0.3035073852539067,15.4212567,73.9813033,0.13691612,0.3360532317058095,0.0,0.08083912554419426,0.011486331973756907
bcad4cd6-2134-49d6-ad24-1eb7677f5a6f,6,1767702671176,1.5520501,-7.7569504,-5.274,-0.0279125,0.0521125,0.0551375,0.1143469810485839,0.087976187467575,-0.3035073852539067,15.4212567,73.9813033,0.13691612,0.3360532317058095,0.0,0.08083912554419426,0.010104343215722726
bcad4cd6-2134-49d6-ad24-1eb7677f5a6f,6,1767702671187,1.60905,-7.6420503,-5.484,-0.01925,0.03355,0.0606375,-0.1187806129455566,0.0298477709293365,-0.2680268859863286,15.4212567,73.9813033,0.13691612,0.2946831095476981,0.0,0.07192406694737166,0.0008233374362623454
bcad4cd6-2134-49d6-ad24-1eb7677f5a6f,6,1767702671198,1.60905,-7.6420503,-5.484,-0.01925,0.03355,0.0606375,-0.1187806129455566,0.0298477709293365,-0.2680268859863286,15.4212567,73.9813033,0.13691612,0.2946831095476981,0.0,0.07192406694737166,0.0014826330348443697
bcad4cd6-2134-49d6-ad24-1eb7677f5a6f,6,1767702671208,1.60905,-7.6420503,-5.484,-0.01925,0.03355,0.0606375,-0.1187806129455566,0.0298477709293365,-0.2680268859863286,15.4212567,73.9813033,0.13691612,0.2946831095476981,0.0,0.07192406694737166,0.003106117420118346
bcad4cd6-2134-49d6-ad24-1eb7677f5a6f,6,1767702671219,1.9540501,-7.5460505,-5.427,-0.0215875,-0.0055,0.0741125,-0.1116089820861816,-0.3324185609817505,-0.3183942413330083,15.4212567,73.9813033,0.13691612,0.4736386359678793,0.0,0.07738819556301851,0.01103165906476039
bcad4cd6-2134-49d6-ad24-1eb7677f5a6f,6,1767702671230,1.9540501,-7.5460505,-5.427,-0.0215875,-0.0055,0.0741125,-0.1116089820861816,-0.3324185609817505,-0.3183942413330083,15.4212567,73.9813033,0.13691612,0.4736386359678793,0.0,0.07738819556301851,0.01415218512826108
bcad4cd6-2134-49d6-ad24-1eb7677f5a6f,6,1767702671241,1.5139501,-7.6039505,-5.2930503,-0.0154,-0.025024999,0.03025,0.0202383995056152,0.0856440365314483,-0.4227328872680669,15.4212567,73.9813033,0.13691612,0.4317957709217925,0.0,0.04217194653973185,-0.017497080701815576
bcad4cd6-2134-49d6-ad24-1eb7677f5a6f,6,1767702671252,1.5139501,-7.6039505,-5.2930503,-0.0154,-0.025024999,0.03025,0.0202383995056152,0.0856440365314483,-0.4227328872680669,15.4212567,73.9813033,0.13691612,0.4317957709217925,0.0,0.04217194653973185,-0.013708106294124256
bcad4cd6-2134-49d6-ad24-1eb7677f5a6f,6,1767702671262,2.01195,-7.7380505,-5.3880005,-0.0176,-0.0408375,0.009625,0.0372576713562011,-0.381288081407547,-0.1762481307983403,15.4212567,73.9813033,0.13691612,0.4217014805620722,0.0,0.04549837394072452,-0.006585096464409642
bcad4cd6-2134-49d6-ad24-1eb7677f5a6f,6,1767702671273,2.01195,-7.7380505,-5.3880005,-0.0176,-0.0408375,0.009625,0.0372576713562011,-0.381288081407547,-0.1762481307983403,15.4212567,73.9813033,0.13691612,0.4217014805620722,0.0,0.04549837394072452,-0.002966846516744054
bcad4cd6-2134-49d6-ad24-1eb7677f5a6f,6,1767702671284,1.6860001,-7.5649505,-5.2540503,-0.007975,-0.0353375,-0.0237875,0.0433740615844726,-0.1021475493907928,-0.4471059417724614,15.4212567,73.9813033,0.13691612,0.4606725021456325,0.0,0.043338028191185624,-0.0018324781467401793
bcad4cd6-2134-49d6-ad24-1eb7677f5a6f,6,1767702671295,1.6860001,-7.5649505,-5.2540503,-0.007975,-0.0353375,-0.0237875,0.0433740615844726,-0.1021475493907928,-0.4471059417724614,15.4212567,73.9813033,0.13691612,0.4606725021456325,0.0,0.043338028191185624,0.0010393565874679842
bcad4cd6-2134-49d6-ad24-1eb7677f5a6f,6,1767702671306,1.6860001,-7.5649505,-5.2540503,-0.007975,-0.0353375,-0.0237875,0.0433740615844726,-0.1021475493907928,-0.4471059417724614,15.4212567,73.9813033,0.13691612,0.4606725021456325,0.0,0.043338028191185624,0.003433234928095335
bcad4cd6-2134-49d6-ad24-1eb7677f5a6f,6,1767702671316,1.60905,-7.5460505,-5.21595,-0.0011,-0.0301125,-0.0342375,0.0647640228271484,-0.0274349451065063,-0.4969373321533208,15.4212567,73.9813033,0.13691612,0.5018901941196026,0.0,0.045608980064237345,0.007602719457366565
bcad4cd6-2134-49d6-ad24-1eb7677f5a6f,6,1767702671327,1.60905,-7.5460505,-5.21595,-0.0011,-0.0301125,-0.0342375,0.0647640228271484,-0.0274349451065063,-0.4969373321533208,15.4212567,73.9813033,0.13691612,0.5018901941196026,0.0,0.045608980064237345,0.009017074380480394
bcad4cd6-2134-49d6-ad24-1eb7677f5a6f,6,1767702671338,1.5330001,-7.7569504,-5.235,0.0037125,-0.018424999,-0.0314875,0.1654582023620605,0.0838392376899719,-0.3289018249511724,15.4212567,73.9813033,0.13691612,0.3776001125020116,0.0,0.03667050450498331,0.0010392846243471388
bcad4cd6-2134-49d6-ad24-1eb7677f5a6f,6,1767702671349,1.5330001,-7.7569504,-5.235,0.0037125,-0.018424999,-0.0314875,0.1654582023620605,0.0838392376899719,-0.3289018249511724,15.4212567,73.9813033,0.13691612,0.3776001125020116,0.0,0.03667050450498331,0.001588744501009167
bcad4cd6-2134-49d6-ad24-1eb7677f5a6f,6,1767702671360,1.7820001,-7.6800003,-5.44605,0.010175,-0.023924999,-0.0191125,-0.0443739891052246,-0.1484961509704589,-0.229113159179688,15.4212567,73.9813033,0.13691612,0.276609828949459,0.0,0.032268000533035836,-0.002625799932004632
bcad4cd6-2134-49d6-ad24-1eb7677f5a6f,6,1767702671371,1.7820001,-7.6800003,-5.44605,0.010175,-0.023924999,-0.0191125,-0.0443739891052246,-0.1484961509704589,-0.229113159179688,15.4212567,73.9813033,0.13691612,0.276609828949459,0.0,0.032268000533035836,-0.0027443249842453742
bcad4cd6-2134-49d6-ad24-1eb7677f5a6f,6,1767702671381,1.7820001,-7.6800003,-5.44605,0.010175,-0.023924999,-0.0191125,-0.0443739891052246,-0.1484961509704589,-0.229113159179688,15.4212567,73.9813033,0.13691612,0.276609828949459,0.0,0.032268000533035836,-0.0031092850627674204
bcad4cd6-2134-49d6-ad24-1eb7677f5a6f,6,1767702671392,1.9729501,-7.5649505,-5.3689504,0.0064625,-0.02585,-0.011275,-0.0394544601440429,-0.3572214841842651,-0.332790908813477,15.4212567,73.9813033,0.13691612,0.489809791834511,0.0,0.02893288840143687,-0.0069905792357838215
bcad4cd6-2134-49d6-ad24-1eb7677f5a6f,6,1767702671403,1.437,-7.5649505,-5.2540503,0.004675,-0.0270875,-0.0242,0.0337796211242675,0.1604211032390594,-0.4895043945312505,15.4212567,73.9813033,0.13691612,0.5162272226773228,0.0,0.03662278363600998,4.1495842519534494e-05
bcad4cd6-2134-49d6-ad24-1eb7677f5a6f,6,1767702671414,1.437,-7.5649505,-5.2540503,0.004675,-0.0270875,-0.0242,0.0337796211242675,0.1604211032390594,-0.4895043945312505,15.4212567,73.9813033,0.13691612,0.5162272226773228,0.0,0.03662278363600998,-0.0006565852427834205
bcad4cd6-2134-49d6-ad24-1eb7677f5a6f,6,1767702671425,1.437,-7.5649505,-5.2540503,0.004675,-0.0270875,-0.0242,0.0337796211242675,0.1604211032390594,-0.4895043945312505,15.4212567,73.9813033,0.13691612,0.5162272226773228,0.0,0.03662278363600998,-0.001326284068081021
bcad4cd6-2134-49d6-ad24-1eb7677f5a6f,6,1767702671435,2.01195,-7.8139505,-5.3880005,-0.0050875,-0.024475,-0.02475,0.0852851867675781,-0.3512863516807556,-0.1143470382690434,15.4212567,73.9813033,0.13691612,0.3791449711127108,0.0,0.03517770289899555,-0.0033526636356491254
bcad4cd6-2134-49d6-ad24-1eb7677f5a6f,6,1767702671446,2.01195,-7.8139505,-5.3880005,-0.0050875,-0.024475,-0.02475,0.0852851867675781,-0.3512863516807556,-0.1143470382690434,15.4212567,73.9813033,0.13691612,0.3791449711127108,0.0,0.03517770289899555,-0.0038002275570908823
bcad4cd6-2134-49d6-ad24-1eb7677f5a6f,6,1767702671457,1.4940001,-7.5649505,-5.274,-0.0039875,0.013475,-0.0561,0.020357608795166,0.114151656627655,-0.4685788726806645,15.4212567,73.9813033,0.13691612,0.482712329311545,0.0,0.05783325843535015,0.018567443893701328
bcad4cd6-2134-49d6-ad24-1eb7677f5a6f,6,1767702671468,1.4940001,-7.5649505,-5.274,-0.0039875,0.013475,-0.0561,0.020357608795166,0.114151656627655,-0.4685788726806645,15.4212567,73.9813033,0.13691612,0.482712329311545,0.0,0.05783325843535015,0.01844386135260364
bcad4cd6-2134-49d6-ad24-1eb7677f5a6f,6,1767702671479,1.6480501,-7.5840006,-5.235,0.0006875,0.00715,-0.0356125,0.0713129043579101,-0.0203748345375061,-0.4487557983398442,15.4212567,73.9813033,0.13691612,0.4548433035167409,0.0,0.036329675370143345,-0.003034003579394554
bcad4cd6-2134-49d6-ad24-1eb7677f5a6f,6,1767702671489,1.6480501,-7.5840006,-5.235,0.0006875,0.00715,-0.0356125,0.0713129043579101,-0.0203748345375061,-0.4487557983398442,15.4212567,73.9813033,0.13691612,0.4548433035167409,0.0,0.036329675370143345,-0.0028883881783749433
bcad4cd6-2134-49d6-ad24-1eb7677f5a6f,6,1767702671500,1.5330001,-7.7179503,-5.2930503,0.00275,0.016775,-0.01815,0.0932149887084961,0.1234574019908905,-0.3279471969604497,15.4212567,73.9813033,0.13691612,0.3626018866752921,0.0,0.02486736063598226,-0.014121496128144019
bcad4cd6-2134-49d6-ad24-1eb7677f5a6f,6,1767702671511,1.5330001,-7.7179503,-5.2930503,0.00275,0.016775,-0.01815,0.0932149887084961,0.1234574019908905,-0.3279471969604497,15.4212567,73.9813033,0.13691612,0.3626018866752921,0.0,0.02486736063598226,-0.013844217609499767
bcad4cd6-2134-49d6-ad24-1eb7677f5a6f,6,1767702671521,1.7629501,-7.5460505,-5.484,0.0099,0.02805,0.021175,-0.1513252258300781,-0.108291745185852,-0.3183971023559575,15.4212567,73.9813033,0.13691612,0.3687860366616282,0.0,0.03651291723486361,-0.0019024437095013617
bcad4cd6-2134-49d6-ad24-1eb7677f5a6f,6,1767702671533,1.7629501,-7.5460505,-5.484,0.0099,0.02805,0.021175,-0.1513252258300781,-0.108291745185852,-0.3183971023559575,15.4212567,73.9813033,0.13691612,0.3687860366616282,0.0,0.03651291723486361,-0.0016081781994588236
bcad4cd6-2134-49d6-ad24-1eb7677f5a6f,6,1767702671543,1.7629501,-7.5460505,-5.484,0.0099,0.02805,0.021175,-0.1513252258300781,-0.108291745185852,-0.3183971023559575,15.4212567,73.9813033,0.13691612,0.3687860366616282,0.0,0.03651291723486361,-0.0013308290114146118
bcad4cd6-2134-49d6-ad24-1eb7677f5a6f,6,1767702671554,2.0310001,-7.6039505,-5.427,0.00275,0.0171875,0.0430375,-0.0634732246398925,-0.3633222579956054,-0.2569213485717778,15.4212567,73.9813033,0.13691612,0.4494891464241963,0.0,0.0464241215587328,0.008826262895340895
bcad4cd6-2134-49d6-ad24-1eb7677f5a6f,6,1767702671565,2.0310001,-7.6039505,-5.427,0.00275,0.0171875,0.0430375,-0.0634732246398925,-0.3633222579956054,-0.2569213485717778,15.4212567,73.9813033,0.13691612,0.4494891464241963,0.0,0.0464241215587328,0.009019970301148159
bcad4cd6-2134-49d6-ad24-1eb7677f5a6f,6,1767702671576,1.45605,-7.5460505,-5.31195,-0.00605,0.0292875,0.0235125,-0.0256519317626953,0.1774409413337707,-0.4693542098999028,15.4212567,73.9813033,0.13691612,0.5024307749484845,0.0,0.03804205321088755,0.0007474674150888163
bcad4cd6-2134-49d6-ad24-1eb7677f5a6f,6,1767702671586,1.45605,-7.5460505,-5.31195,-0.00605,0.0292875,0.0235125,-0.0256519317626953,0.1774409413337707,-0.4693542098999028,15.4212567,73.9813033,0.13691612,0.5024307749484845,0.0,0.03804205321088755,0.0007285074469571851
bcad4cd6-2134-49d6-ad24-1eb7677f5a6f,6,1767702671597,1.9540501,-7.7179503,-5.4079504,-0.0232375,0.0295625,0.0232375,0.0108866691589355,-0.2770819365978241,-0.1894956207275395,15.4212567,73.9813033,0.13691612,0.3358593595972758,0.0,0.04420298879883577,0.006689335059541462
bcad4cd6-2134-49d6-ad24-1eb7677f5a6f,6,1767702671608,1.9540501,-7.7179503,-5.4079504,-0.0232375,0.0295625,0.0232375,0.0108866691589355,-0.2770819365978241,-0.1894956207275395,15.4212567,73.9813033,0.13691612,0.3358593595972758,0.0,0.04420298879883577,0.006256902538289251
bcad4cd6-2134-49d6-ad24-1eb7677f5a6f,6,1767702671619,1.5330001,-7.5270004,-5.2540503,-0.026675,0.0276375,0.011825,0.0181746482849121,0.0957185328006744,-0.5040116882324224,15.4212567,73.9813033,0.13691612,0.5133421249388078,0.0,0.04018977054239051,0.001543053140939089
bcad4cd6-2134-49d6-ad24-1eb7677f5a6f,6,1767702671630,1.5330001,-7.5270004,-5.2540503,-0.026675,0.0276375,0.011825,0.0181746482849121,0.0957185328006744,-0.5040116882324224,15.4212567,73.9813033,0.13691612,0.5133421249388078,0.0,0.04018977054239051,0.0005690070579863292
bcad4cd6-2134-49d6-ad24-1eb7677f5a6f,6,1767702671640,1.5330001,-7.5270004,-5.2540503,-0.026675,0.0276375,0.011825,0.0181746482849121,0.0957185328006744,-0.5040116882324224,15.4212567,73.9813033,0.13691612,0.5133421249388078,0.0,0.04018977054239051,-0.0006397832434721932
bcad4cd6-2134-49d6-ad24-1eb7677f5a6f,6,1767702671651,1.6290001,-7.5840006,-5.2930503,-0.0177375,0.0144375,0.0119624995,0.0278830528259277,0.0182370543479919,-0.4192596054077153,15.4212567,73.9813033,0.13691612,0.420581349459077,0.0,0.025810108616344495,-0.016373256740965576
bcad4cd6-2134-49d6-ad24-1eb7677f5a6f,6,1767702671662,1.6290001,-7.5840006,-5.2930503,-0.0177375,0.0144375,0.0119624995,0.0278830528259277,0.0182370543479919,-0.4192596054077153,15.4212567,73.9813033,0.13691612,0.420581349459077,0.0,0.025810108616344495,-0.017733609690585614
bcad4cd6-2134-49d6-ad24-1eb7677f5a6f,6,1767702671673,1.41795,-7.7179503,-5.2540503,-0.015125,0.0097624995,0.015125,0.1294894218444824,0.2406361997127533,-0.3703122711181645,15.4212567,73.9813033,0.13691612,0.4602221953823038,0.0,0.023512499792397668,-0.021224525206891515
bcad4cd6-2134-49d6-ad24-1eb7677f5a6f,6,1767702671684,1.41795,-7.7179503,-5.2540503,-0.015125,0.0097624995,0.015125,0.1294894218444824,0.2406361997127533,-0.3703122711181645,15.4212567,73.9813033,0.13691612,0.4602221953823038,0.0,0.023512499792397668,-0.022066625199291916
bcad4cd6-2134-49d6-ad24-1eb7677f5a6f,6,1767702671695,1.60905,-7.6039505,-5.427,-0.0099,-0.0287375,0.067925,-0.0678749084472656,0.0469055771827697,-0.3308292007446294,15.4212567,73.9813033,0.13691612,0.3409620161145575,0.0,0.0744154522343982,0.028508038141870917
bcad4cd6-2134-49d6-ad24-1eb7677f5a6f,6,1767702671706,1.60905,-7.6039505,-5.427,-0.0099,-0.0287375,0.067925,-0.0678749084472656,0.0469055771827697,-0.3308292007446294,15.4212567,73.9813033,0.13691612,0.3409620161145575,0.0,0.0744154522343982,0.028800759416287625
bcad4cd6-2134-49d6-ad24-1eb7677f5a6f,6,1767702671717,2.0310001,-7.5840006,-5.44605,-0.0072875,-0.0279125,0.0565125,-0.0759587287902832,-0.383695125579834,-0.2628255462646489,15.4212567,73.9813033,0.13691612,0.4712419183842535,0.0,0.0634498066880428,0.01877243158248443
bcad4cd6-2134-49d6-ad24-1eb7677f5a6f,6,1767702671728,2.0310001,-7.5840006,-5.44605,-0.0072875,-0.0279125,0.0565125,-0.0759587287902832,-0.383695125579834,-0.2628255462646489,15.4212567,73.9813033,0.13691612,0.4712419183842535,0.0,0.0634498066880428,0.02027880719032223
bcad4cd6-2134-49d6-ad24-1eb7677f5a6f,6,1767702671739,1.5139501,-7.5840006,-5.3310003,-0.0070125,-0.0193875,0.0323125,0.0015783309936523,0.1029839217662811,-0.4175506210327153,15.4212567,73.9813033,0.13691612,0.4300659256391923,0.0,0.03832946606398268,-0.002938759304928145
bcad4cd6-2134-49d6-ad24-1eb7677f5a6f,6,1767702671750,1.5139501,-7.5840006,-5.3310003,-0.0070125,-0.0193875,0.0323125,0.0015783309936523,0.1029839217662811,-0.4175506210327153,15.4212567,73.9813033,0.13691612,0.4300659256391923,0.0,0.03832946606398268,-0.0008886852944710595
bcad4cd6-2134-49d6-ad24-1eb7677f5a6f,6,1767702671761,1.9920001,-7.79505,-5.44605,-0.013612499,-0.018975,0.011,0.0446605682373046,-0.3314334154129028,-0.1002870178222661,15.4212567,73.9813033,0.13691612,0.3491420357837542,0.0,0.02581377062780641,-0.01149609147203634
bcad4cd6-2134-49d6-ad24-1eb7677f5a6f,6,1767702671772,1.9920001,-7.79505,-5.44605,-0.013612499,-0.018975,0.011,0.0446605682373046,-0.3314334154129028,-0.1002870178222661,15.4212567,73.9813033,0.13691612,0.3491420357837542,0.0,0.02581377062780641,-0.010012755217314177
bcad4cd6-2134-49d6-ad24-1eb7677f5a6f,6,1767702671783,1.9920001,-7.79505,-5.44605,-0.013612499,-0.018975,0.011,0.0446605682373046,-0.3314334154129028,-0.1002870178222661,15.4212567,73.9813033,0.13691612,0.3491420357837542,0.0,0.02581377062780641,-0.009184580653370375
bcad4cd6-2134-49d6-ad24-1eb7677f5a6f,6,1767702671794,1.4749501,-7.4500504,-5.235,-0.0132,-0.0099,-0.0143,0.0057106018066406,0.1047056317329406,-0.5864987945556646,15.4212567,73.9813033,0.13691612,0.5957992248273204,0.0,0.02183437656540713,-0.013128557836350165
bcad4cd6-2134-49d6-ad24-1eb7677f5a6f,6,1767702671805,1.4749501,-7.4500504,-5.235,-0.0132,-0.0099,-0.0143,0.0057106018066406,0.1047056317329406,-0.5864987945556646,15.4212567,73.9813033,0.13691612,0.5957992248273204,0.0,0.02183437656540713,-0.013905699814550044
bcad4cd6-2134-49d6-ad24-1eb7677f5a6f,6,1767702671816,1.6290001,-7.5649505,-5.31195,-0.0012375,-0.0363,-0.011275,0.0183396339416503,-0.0180256366729736,-0.4239307022094731,15.4212567,73.9813033,0.13691612,0.4247099080859743,0.0,0.03803086945167044,0.0008054402373949737
bcad4cd6-2134-49d6-ad24-1eb7677f5a6f,6,1767702671827,1.6290001,-7.5649505,-5.31195,-0.0012375,-0.0363,-0.011275,0.0183396339416503,-0.0180256366729736,-0.4239307022094731,15.4212567,73.9813033,0.13691612,0.4247099080859743,0.0,0.03803086945167044,-0.001173037283965588
bcad4cd6-2134-49d6-ad24-1eb7677f5a6f,6,1767702671839,1.5330001,-7.7380505,-5.2930503,0.00165,-0.0433125,-0.014025,0.1286544799804687,0.0982837975025177,-0.3117013549804692,15.4212567,73.9813033,0.13691612,0.3512398251440478,0.0,0.04555651195218967,0.004176174011665742
bcad4cd6-2134-49d6-ad24-1eb7677f5a6f,6,1767702671850,1.5330001,-7.7380505,-5.2930503,0.00165,-0.0433125,-0.014025,0.1286544799804687,0.0982837975025177,-0.3117013549804692,15.4212567,73.9813033,0.13691612,0.3512398251440478,0.0,0.04555651195218967,0.002134549056034823
bcad4cd6-2134-49d6-ad24-1eb7677f5a6f,6,1767702671861,1.72395,-7.5840006,-5.5030503,0.0089375,-0.0617375,0.00495,-0.1233024597167968,-0.0982021689414978,-0.2838349914550786,15.4212567,73.9813033,0.13691612,0.3246682382545778,0.0,0.06257715487699964,0.01757158652682412
bcad4cd6-2134-49d6-ad24-1eb7677f5a6f,6,1767702671872,1.72395,-7.5840006,-5.5030503,0.0089375,-0.0617375,0.00495,-0.1233024597167968,-0.0982021689414978,-0.2838349914550786,15.4212567,73.9813033,0.13691612,0.3246682382545778,0.0,0.06257715487699964,0.01671555147145201
bcad4cd6-2134-49d6-ad24-1eb7677f5a6f,6,1767702671883,1.9729501,-7.5649505,-5.4079504,0.0053625,-0.0474375,-0.0,-0.0446357727050781,-0.3595305979251861,-0.3107514953613286,15.4212567,73.9813033,0.13691612,0.477306080957202,0.0,0.04773963565529171,0.0019311052701834605
bcad4cd6-2134-49d6-ad24-1eb7677f5a6f,6,1767702671893,1.9729501,-7.5649505,-5.4079504,0.0053625,-0.0474375,-0.0,-0.0446357727050781,-0.3595305979251861,-0.3107514953613286,15.4212567,73.9813033,0.13691612,0.477306080957202,0.0,0.04773963565529171,0.002966904620666565
bcad4cd6-2134-49d6-ad24-1eb7677f5a6f,7,1767702671904,1.9729501,-7.5649505,-5.4079504,0.0053625,-0.0474375,-0.0,-0.0446357727050781,-0.3595305979251861,-0.3107514953613286,15.42126,73.9813033,0.109121114,0.477306080957202,0.0,0.04773963565529171,0.004947577259929187
bcad4cd6-2134-49d6-ad24-1eb7677f5a6f,7,1767702671915,1.3990501,-7.5840006,-5.2930503,-0.000275,-0.02805,-0.0023375,0.0364789962768554,0.1944901943206787,-0.4584413146972661,15.42126,73.9813033,0.109121114,0.499325136436791,0.0,0.028148570678633043,-0.011855440264240685
bcad4cd6-2134-49d6-ad24-1eb7677f5a6f,7,1767702671926,1.3990501,-7.5840006,-5.2930503,-0.000275,-0.02805,-0.0023375,0.0364789962768554,0.1944901943206787,-0.4584413146972661,15.42126,73.9813033,0.109121114,0.499325136436791,0.0,0.028148570678633043,-0.008473350689589482
bcad4cd6-2134-49d6-ad24-1eb7677f5a6f,7,1767702671936,1.9729501,-7.7380505,-5.4079504,-0.0191125,-0.0039875,-0.0017875,0.0531949996948242,-0.3386762738227844,-0.1716199493408208,15.42126,73.9813033,0.109121114,0.3833858806147716,0.0,0.01960568715322164,-0.013298374874398073
bcad4cd6-2134-49d6-ad24-1eb7677f5a6f,7,1767702671947,1.9729501,-7.7380505,-5.4079504,-0.0191125,-0.0039875,-0.0017875,0.0531949996948242,-0.3386762738227844,-0.1716199493408208,15.42126,73.9813033,0.109121114,0.3833858806147716,0.0,0.01960568715322164,-0.009515289699421723
bcad4cd6-2134-49d6-ad24-1eb7677f5a6f,7,1767702671958,1.5139501,-7.5460505,-5.21595,-0.0210375,0.0166375,-0.0229625,0.0860486030578613,0.0708219408988952,-0.5132995223999028,15.42126,73.9813033,0.109121114,0.5252585164439167,0.0,0.03530806166798172,0.009782332342545356
bcad4cd6-2134-49d6-ad24-1eb7677f5a6f,7,1767702671969,1.5139501,-7.5460505,-5.21595,-0.0210375,0.0166375,-0.0229625,0.0860486030578613,0.0708219408988952,-0.5132995223999028,15.42126,73.9813033,0.109121114,0.5252585164439167,0.0,0.03530806166798172,0.01297763378182793
bcad4cd6-2134-49d6-ad24-1eb7677f5a6f,7,1767702671980,1.57095,-7.623,-5.3310003,-0.011825,0.0015125,-0.011,0.0421586036682128,0.0444866418838501,-0.3763461685180669,15.42126,73.9813033,0.109121114,0.3813041407165474,0.0,0.016220921097459293,-0.0034698940690706718
bcad4cd6-2134-49d6-ad24-1eb7677f5a6f,7,1767702671991,1.57095,-7.623,-5.3310003,-0.011825,0.0015125,-0.011,0.0421586036682128,0.0444866418838501,-0.3763461685180669,15.42126,73.9813033,0.109121114,0.3813041407165474,0.0,0.016220921097459293,-0.001478384209629301
bcad4cd6-2134-49d6-ad24-1eb7677f5a6f,7,1767702672002,1.4749501,-7.7179503,-5.2930503,-0.0045375,-0.0048125,-0.0086624995,0.1237463951110839,0.1514039039611816,-0.3379150009155278,15.42126,73.9813033,0.109121114,0.3904137040133407,0.0,0.010898988947948348,-0.0054868429481830195
bcad4cd6-2134-49d6-ad24-1eb7677f5a6f,7,1767702672013,1.4749501,-7.7179503,-5.2930503,-0.0045375,-0.0048125,-0.0086624995,0.1237463951110839,0.1514039039611816,-0.3379150009155278,15.42126,73.9813033,0.109121114,0.3904137040133407,0.0,0.010898988947948348,-0.004826203154596169
bcad4cd6-2134-49d6-ad24-1eb7677f5a6f,7,1767702672024,1.4749501,-7.7179503,-5.2930503,-0.0045375,-0.0048125,-0.0086624995,0.1237463951110839,0.1514039039611816,-0.3379150009155278,15.42126,73.9813033,0.109121114,0.3904137040133407,0.0,0.010898988947948348,-0.004750105815804573
bcad4cd6-2134-49d6-ad24-1eb7677f5a6f,7,1767702672035,1.6669501,-7.5270004,-5.44605,0.00605,-0.022275,0.013612499,-0.1012153625488281,-0.0534982085227966,-0.3717341995239263,15.42126,73.9813033,0.109121114,0.3889639096712362,0.0,0.026796982181301703,0.010736219277462029
bcad4cd6-2134-49d6-ad24-1eb7677f5a6f,7,1767702672045,1.6669501,-7.5270004,-5.44605,0.00605,-0.022275,0.013612499,-0.1012153625488281,-0.0534982085227966,-0.3717341995239263,15.42126,73.9813033,0.109121114,0.3889639096712362,0.0,0.026796982181301703,0.009947211426440027
bcad4cd6-2134-49d6-ad24-1eb7677f5a6f,7,1767702672056,1.9729501,-7.5649505,-5.427,0.0034375,-0.022,0.017875,-0.0509757995605468,-0.352325439453125,-0.2996583557128911,15.42126,73.9813033,0.109121114,0.4653244863267226,0.0,0.02855401952878088,0.010649052797509015
bcad4cd6-2134-49d6-ad24-1eb7677f5a6f,7,1767702672067,1.9729501,-7.5649505,-5.427,0.0034375,-0.022,0.017875,-0.0509757995605468,-0.352325439453125,-0.2996583557128911,15.42126,73.9813033,0.109121114,0.4653244863267226,0.0,0.02855401952878088,0.009430063576893292
bcad4cd6-2134-49d6-ad24-1eb7677f5a6f,7,1767702672078,1.4749501,-7.5840006,-5.3500504,-0.0,-0.006875,0.0011,0.0014257431030273,0.1294826567173004,-0.4132524108886724,15.42126,73.9813033,0.109121114,0.4330650600536438,0.0,0.006962443895644689,-0.013456177849844271
bcad4cd6-2134-49d6-ad24-1eb7677f5a6f,7,1767702672089,1.4749501,-7.5840006,-5.3500504,-0.0,-0.006875,0.0011,0.0014257431030273,0.1294826567173004,-0.4132524108886724,15.42126,73.9813033,0.109121114,0.4330650600536438,0.0,0.006962443895644689,-0.01475482372827833
bcad4cd6-2134-49d6-ad24-1eb7677f5a6f,7,1767702672100,1.9729501,-7.7760005,-5.4079504,-0.0078375,0.0015125,-0.0028875,0.0830984115600586,-0.3242402970790863,-0.1408401107788091,15.42126,73.9813033,0.109121114,0.3631432954880569,0.0,0.008488328383727858,-0.014476415166054692
bcad4cd6-2134-49d6-ad24-1eb7677f5a6f,7,1767702672111,1.9729501,-7.7760005,-5.4079504,-0.0078375,0.0015125,-0.0028875,0.0830984115600586,-0.3242402970790863,-0.1408401107788091,15.42126,73.9813033,0.109121114,0.3631432954880569,0.0,0.008488328383727858,-0.01563371419315009
bcad4cd6-2134-49d6-ad24-1eb7677f5a6f,7,1767702672122,1.60905,-7.5649505,-5.274,-0.0078375,0.027224999,-0.0339625,0.0585722923278808,-0.0072999596595764,-0.4489560699462895,15.42126,73.9813033,0.109121114,0.4528195618358286,0.0,0.04422757491712609,0.019061313184513172
bcad4cd6-2134-49d6-ad24-1eb7677f5a6f,7,1767702672133,1.60905,-7.5649505,-5.274,-0.0078375,0.027224999,-0.0339625,0.0585722923278808,-0.0072999596595764,-0.4489560699462895,15.42126,73.9813033,0.109121114,0.4528195618358286,0.0,0.04422757491712609,0.01813674708640415
bcad4cd6-2134-49d6-ad24-1eb7677f5a6f,7,1767702672144,1.60905,-7.5649505,-5.274,-0.0078375,0.027224999,-0.0339625,0.0585722923278808,-0.0072999596595764,-0.4489560699462895,15.42126,73.9813033,0.109121114,0.4528195618358286,0.0,0.04422757491712609,0.017322526141697457
bcad4cd6-2134-49d6-ad24-1eb7677f5a6f,7,1767702672155,1.57095,-7.5270004,-5.3310003,-0.003025,0.0221375,-0.0121,-0.0099434852600097,0.0405923426151275,-0.453640518188477,15.42126,73.9813033,0.109121114,0.4555615555777396,0.0,0.025409241060094654,-0.002222622345196142
bcad4cd6-2134-49d6-ad24-1eb7677f5a6f,7,1767702672166,1.57095,-7.5270004,-5.3310003,-0.003025,0.0221375,-0.0121,-0.0099434852600097,0.0405923426151275,-0.453640518188477,15.42126,73.9813033,0.109121114,0.4555615555777396,0.0,0.025409241060094654,-0.0028940348248732758
bcad4cd6-2134-49d6-ad24-1eb7677f5a6f,7,1767702672177,1.4749501,-7.7380505,-5.3310003,0.0011,0.0138875,-0.012925,0.1040453910827636,0.1721161603927612,-0.3004232025146489,15.42126,73.9813033,0.109121114,0.3615294133028041,0.0,0.01900337552252231,-0.009950695944868295
bcad4cd6-2134-49d6-ad24-1eb7677f5a6f,7,1767702672187,1.4749501,-7.7380505,-5.3310003,0.0011,0.0138875,-0.012925,0.1040453910827636,0.1721161603927612,-0.3004232025146489,15.42126,73.9813033,0.109121114,0.3615294133028041,0.0,0.01900337552252231,-0.010612068329533
bcad4cd6-2134-49d6-ad24-1eb7677f5a6f,7,1767702672199,1.4749501,-7.5270004,-5.46495,0.0127875,-0.00935,-0.016775,-0.1267752647399902,0.1520291268825531,-0.3941770172119145,15.42126,73.9813033,0.109121114,0.4410899500880155,0.0,0.023072565554138103,-0.007238030098001892
bcad4cd6-2134-49d6-ad24-1eb7677f5a6f,7,1767702672210,1.4749501,-7.5270004,-5.46495,0.0127875,-0.00935,-0.016775,-0.1267752647399902,0.1520291268825531,-0.3941770172119145,15.42126,73.9813033,0.109121114,0.4410899500880155,0.0,0.023072565554138103,-0.007981408585973413
bcad4cd6-2134-49d6-ad24-1eb7677f5a6f,7,1767702672221,1.8769501,-7.5079503,-5.427,0.0092124995,-0.032175,-0.0081124995,-0.0895557403564453,-0.2460961639881134,-0.3614011383056645,15.42126,73.9813033,0.109121114,0.4463119260439783,0.0,0.03443709366620535,0.0025823984564001096
bcad4cd6-2134-49d6-ad24-1eb7677f5a6f,7,1767702672231,1.8769501,-7.5079503,-5.427,0.0092124995,-0.032175,-0.0081124995,-0.0895557403564453,-0.2460961639881134,-0.3614011383056645,15.42126,73.9813033,0.109121114,0.4463119260439783,0.0,0.03443709366620535,0.0017138322385072651
bcad4cd6-2134-49d6-ad24-1eb7677f5a6f,7,1767702672243,1.45605,-7.5460505,-5.274,0.003575,-0.0363,-0.022,0.0379652976989746,0.1607879996299743,-0.4906240081787114,15.42126,73.9813033,0.109121114,0.5176930191297974,0.0,0.042596603444406224,0.008917238966097063
bcad4cd6-2134-49d6-ad24-1eb7677f5a6f,7,1767702672253,1.45605,-7.5460505,-5.274,0.003575,-0.0363,-0.022,0.0379652976989746,0.1607879996299743,-0.4906240081787114,15.42126,73.9813033,0.109121114,0.5176930191297974,0.0,0.042596603444406224,0.007838805741803734
bcad4cd6-2134-49d6-ad24-1eb7677f5a6f,7,1767702672264,1.45605,-7.5460505,-5.274,0.003575,-0.0363,-0.022,0.0379652976989746,0.1607879996299743,-0.4906240081787114,15.42126,73.9813033,0.109121114,0.5176930191297974,0.0,0.042596603444406224,0.0065870542697402355
bcad4cd6-2134-49d6-ad24-1eb7677f5a6f,7,1767702672275,1.9350001,-7.7179503,-5.44605,-0.0077,-0.033825,-0.0264,0.0172023773193359,-0.2701247930526733,-0.1716809844970708,15.42126,73.9813033,0.109121114,0.3205272001641512,0.0,0.043593355284951396,0.006097315917095025
bcad4cd6-2134-49d6-ad24-1eb7677f5a6f,7,1767702672286,1.9350001,-7.7179503,-5.44605,-0.0077,-0.033825,-0.0264,0.0172023773193359,-0.2701247930526733,-0.1716809844970708,15.42126,73.9813033,0.109121114,0.3205272001641512,0.0,0.043593355284951396,0.00431732080688222
bcad4cd6-2134-49d6-ad24-1eb7677f5a6f,7,1767702672296,1.5330001,-7.5840006,-5.2930503,-0.0099,-0.026675,-0.034925,0.0515294075012207,0.0934471786022186,-0.4359851455688481,15.42126,73.9813033,0.109121114,0.4488548787557416,0.0,0.04504798830136591,0.0036613152856902476
bcad4cd6-2134-49d6-ad24-1eb7677f5a6f,7,1767702672307,1.5330001,-7.5840006,-5.2930503,-0.0099,-0.026675,-0.034925,0.0515294075012207,0.0934471786022186,-0.4359851455688481,15.42126,73.9813033,0.109121114,0.4488548787557416,0.0,0.04504798830136591,0.0012261092334744047
bcad4cd6-2134-49d6-ad24-1eb7677f5a6f,7,1767702672318,1.57095,-7.5270004,-5.31195,-0.0037125,-0.0295625,-0.018975,0.0106801986694335,0.0530323386192321,-0.4645457839965825,15.42126,73.9813033,0.109121114,0.4676850232924323,0.0,0.03532385436925025,-0.011188935663925807
bcad4cd6-2134-49d6-ad24-1eb7677f5a6f,7,1767702672329,1.57095,-7.5270004,-5.31195,-0.0037125,-0.0295625,-0.018975,0.0106801986694335,0.0530323386192321,-0.4645457839965825,15.42126,73.9813033,0.109121114,0.4676850232924323,0.0,0.03532385436925025,-0.013991490702383404
bcad4cd6-2134-49d6-ad24-1eb7677f5a6f,7,1767702672339,1.5330001,-7.7569504,-5.3310003,0.0011,-0.0290125,-0.017324999,0.1239256858825683,0.1276191771030426,-0.2754159545898442,15.42126,73.9813033,0.109121114,0.3278691477229261,0.0,0.03380962505855398,-0.01819999184094819
bcad4cd6-2134-49d6-ad24-1eb7677f5a6f,7,1767702672350,1.5330001,-7.7569504,-5.3310003,0.0011,-0.0290125,-0.017324999,0.1239256858825683,0.1276191771030426,-0.2754159545898442,15.42126,73.9813033,0.109121114,0.3278691477229261,0.0,0.03380962505855398,-0.020504133267721814
bcad4cd6-2134-49d6-ad24-1eb7677f5a6f,7,1767702672361,1.6480501,-7.623,-5.5420504,0.01375,-0.06325,0.0026125,-0.1186270713806152,0.0071301162242889,-0.2430577850341801,15.42126,73.9813033,0.109121114,0.2705555534219085,0.0,0.0647800135554941,0.008867239672046971
bcad4cd6-2134-49d6-ad24-1eb7677f5a6f,7,1767702672372,1.6480501,-7.623,-5.5420504,0.01375,-0.06325,0.0026125,-0.1186270713806152,0.0071301162242889,-0.2430577850341801,15.42126,73.9813033,0.109121114,0.2705555534219085,0.0,0.0647800135554941,0.008280799259457088
bcad4cd6-2134-49d6-ad24-1eb7677f5a6f,7,1767702672383,1.6480501,-7.623,-5.5420504,0.01375,-0.06325,0.0026125,-0.1186270713806152,0.0071301162242889,-0.2430577850341801,15.42126,73.9813033,0.109121114,0.2705555534219085,0.0,0.0647800135554941,0.008959964731445702
bcad4cd6-2134-49d6-ad24-1eb7677f5a6f,7,1767702672393,1.6480501,-7.623,-5.5420504,0.01375,-0.06325,0.0026125,-0.1186270713806152,0.0071301162242889,-0.2430577850341801,15.42126,73.9813033,0.109121114,0.2705555534219085,0.0,0.0647800135554941,0.011057879576204811
bcad4cd6-2134-49d6-ad24-1eb7677f5a6f,7,1767702672404,1.9159501,-7.5649505,-5.4079504,0.0108624995,-0.071775,0.0026125,-0.02805757522583,-0.2796691358089447,-0.3196740722656255,15.42126,73.9813033,0.109121114,0.4256683750651009,0.0,0.07263931219826839,0.022450950014776528
bcad4cd6-2134-49d6-ad24-1eb7677f5a6f,7,1767702672415,1.45605,-7.5840006,-5.2930503,0.0055,-0.0455125,-0.0045375,0.0518803596496582,0.1587504148483276,-0.4491410827636724,15.42126,73.9813033,0.109121114,0.4791878318133902,0.0,0.046067630311315125,0.0007097966631112129
bcad4cd6-2134-49d6-ad24-1eb7677f5a6f,7,1767702672425,1.45605,-7.5840006,-5.2930503,0.0055,-0.0455125,-0.0045375,0.0518803596496582,0.1587504148483276,-0.4491410827636724,15.42126,73.9813033,0.109121114,0.4791878318133902,0.0,0.046067630311315125,0.006541684323626507
bcad4cd6-2134-49d6-ad24-1eb7677f5a6f,7,1767702672436,1.8769501,-7.7760005,-5.427,-0.0086624995,-0.0199375,0.0026125,0.0719990730285644,-0.2193169593811035,-0.1462417221069341,15.42126,73.9813033,0.109121114,0.2732589183795231,0.0,0.021894473277233692,-0.011229088420184241
bcad4cd6-2134-49d6-ad24-1eb7677f5a6f,7,1767702672447,1.8769501,-7.7760005,-5.427,-0.0086624995,-0.0199375,0.0026125,0.0719990730285644,-0.2193169593811035,-0.1462417221069341,15.42126,73.9813033,0.109121114,0.2732589183795231,0.0,0.021894473277233692,-0.00478323028828981
bcad4cd6-2134-49d6-ad24-1eb7677f5a6f,7,1767702672458,1.5520501,-7.5840006,-5.31195,-0.007425,0.0012375,-0.0125124995,0.0418000221252441,0.0578539371490478,-0.4218345260620122,15.42126,73.9813033,0.109121114,0.4278302084604117,0.0,0.01460221472885193,-0.00615669777972932
bcad4cd6-2134-49d6-ad24-1eb7677f5a6f,7,1767702672468,1.5520501,-7.5840006,-5.31195,-0.007425,0.0012375,-0.0125124995,0.0418000221252441,0.0578539371490478,-0.4218345260620122,15.42126,73.9813033,0.109121114,0.4278302084604117,0.0,0.01460221472885193,-0.0013198540808454576
bcad4cd6-2134-49d6-ad24-1eb7677f5a6f,7,1767702672479,1.5520501,-7.5840006,-5.31195,-0.007425,0.0012375,-0.0125124995,0.0418000221252441,0.0578539371490478,-0.4218345260620122,15.42126,73.9813033,0.109121114,0.4278302084604117,0.0,0.01460221472885193,0.001954207558321819
bcad4cd6-2134-49d6-ad24-1eb7677f5a6f,7,1767702672490,1.5520501,-7.5079503,-5.3310003,-0.00495,0.0042625,0.0023375,-0.014625072479248,0.0513079166412353,-0.4721799468994145,15.42126,73.9813033,0.109121114,0.4751844876561325,0.0,0.0069379616963485755,-0.004354816105884774
bcad4cd6-2134-49d6-ad24-1eb7677f5a6f,7,1767702672500,1.5520501,-7.5079503,-5.3310003,-0.00495,0.0042625,0.0023375,-0.014625072479248,0.0513079166412353,-0.4721799468994145,15.42126,73.9813033,0.109121114,0.4751844876561325,0.0,0.0069379616963485755,-0.005112208596155487
bcad4cd6-2134-49d6-ad24-1eb7677f5a6f,7,1767702672511,1.437,-7.7569504,-5.2930503,-0.00055,0.0070125,0.006875,0.1505346298217773,0.2023423910140991,-0.3132615661621099,15.42126,73.9813033,0.109121114,0.4021640545986427,0.0,0.009835816247266925,-0.0050955551676689316
bcad4cd6-2134-49d6-ad24-1eb7677f5a6f,7,1767702672522,1.437,-7.7569504,-5.2930503,-0.00055,0.0070125,0.006875,0.1505346298217773,0.2023423910140991,-0.3132615661621099,15.42126,73.9813033,0.109121114,0.4021640545986427,0.0,0.009835816247266925,-0.009927750238234908
bcad4cd6-2134-49d6-ad24-1eb7677f5a6f,7,1767702672532,1.59,-7.66095,-5.484,0.0064625,0.0078375,0.026675,-0.0542778968811035,0.0478184819221496,-0.2555623626708989,15.42126,73.9813033,0.109121114,0.2656027456881926,0.0,0.028543754789795962,0.0023366662693352458
bcad4cd6-2134-49d6-ad24-1eb7677f5a6f,7,1767702672543,1.59,-7.66095,-5.484,0.0064625,0.0078375,0.026675,-0.0542778968811035,0.0478184819221496,-0.2555623626708989,15.42126,73.9813033,0.109121114,0.2656027456881926,0.0,0.028543754789795962,-0.005244825780787775
bcad4cd6-2134-49d6-ad24-1eb7677f5a6f,7,1767702672554,1.8580501,-7.5460505,-5.44605,0.0023375,0.0199375,0.0576125,-0.075751781463623,-0.2413861155509948,-0.3236556625366216,15.42126,73.9813033,0.109121114,0.4108023576706081,0.0,0.06100957276321479,0.019063735231597833
bcad4cd6-2134-49d6-ad24-1eb7677f5a6f,7,1767702672565,1.8580501,-7.5460505,-5.44605,0.0023375,0.0199375,0.0576125,-0.075751781463623,-0.2413861155509948,-0.3236556625366216,15.42126,73.9813033,0.109121114,0.4108023576706081,0.0,0.06100957276321479,0.010930741561097688
bcad4cd6-2134-49d6-ad24-1eb7677f5a6f,7,1767702672576,1.8580501,-7.5460505,-5.44605,0.0023375,0.0199375,0.0576125,-0.075751781463623,-0.2413861155509948,-0.3236556625366216,15.42126,73.9813033,0.109121114,0.4108023576706081,0.0,0.06100957276321479,0.0034084510680929335
bcad4cd6-2134-49d6-ad24-1eb7677f5a6f,7,1767702672586,1.4940001,-7.623,-5.3310003,-0.0026125,0.0369875,0.049775,0.0411572456359863,0.1143293380737304,-0.3894372558593755,15.42126,73.9813033,0.109121114,0.4079540325379797,0.0,0.062068115304880975,-0.0019183468805481242
bcad4cd6-2134-49d6-ad24-1eb7677f5a6f,7,1767702672597,1.4940001,-7.623,-5.3310003,-0.0026125,0.0369875,0.049775,0.0411572456359863,0.1143293380737304,-0.3894372558593755,15.42126,73.9813033,0.109121114,0.4079540325379797,0.0,0.062068115304880975,-0.006738597018059367
bcad4cd6-2134-49d6-ad24-1eb7677f5a6f,7,1767702672608,1.8010501,-7.8139505,-5.484,-0.016224999,0.049775,0.050875,0.0356321334838867,-0.1521466672420501,-0.0965304946899419,15.42126,73.9813033,0.109121114,0.1836746953027595,0.0,0.0730004578242493,0.0012416542666012901
bcad4cd6-2134-49d6-ad24-1eb7677f5a6f,7,1767702672620,1.8010501,-7.8139505,-5.484,-0.016224999,0.049775,0.050875,0.0356321334838867,-0.1521466672420501,-0.0965304946899419,15.42126,73.9813033,0.109121114,0.1836746953027595,0.0,0.0730004578242493,0.0003204142707207281
bcad4cd6-2134-49d6-ad24-1eb7677f5a6f,7,1767702672631,1.4749501,-7.5649505,-5.2930503,-0.01375,0.0501875,0.0463375,0.0357618331909179,0.1148295402526855,-0.4608865356445317,15.42126,73.9813033,0.109121114,0.4763204076734865,0.0,0.06967791301768445,-0.001874334406905987
bcad4cd6-2134-49d6-ad24-1eb7677f5a6f,7,1767702672642,1.4749501,-7.5649505,-5.2930503,-0.01375,0.0501875,0.0463375,0.0357618331909179,0.1148295402526855,-0.4608865356445317,15.42126,73.9813033,0.109121114,0.4763204076734865,0.0,0.06967791301768445,0.0011819413866528774
bcad4cd6-2134-49d6-ad24-1eb7677f5a6f,7,1767702672653,1.6290001,-7.39305,-5.3310003,-0.0088,0.0419375,0.0407,-0.0845780372619628,-0.0616537928581237,-0.5515189743041997,15.42126,73.9813033,0.109121114,0.5613624618536894,0.0,0.059098933207376934,-0.0046576193988476355
bcad4cd6-2134-49d6-ad24-1eb7677f5a6f,7,1767702672664,1.6290001,-7.39305,-5.3310003,-0.0088,0.0419375,0.0407,-0.0845780372619628,-0.0616537928581237,-0.5515189743041997,15.42126,73.9813033,0.109121114,0.5613624618536894,0.0,0.059098933207376934,0.0014151400743104238
bcad4cd6-2134-49d6-ad24-1eb7677f5a6f,7,1767702672675,1.437,-7.6990504,-5.274,-0.0092124995,0.0259875,0.032175,0.126718521118164,0.1706455051898956,-0.3701768493652349,15.42126,73.9813033,0.109121114,0.4268587258588737,0.0,0.04237276163158946,-0.008334295031006281
bcad4cd6-2134-49d6-ad24-1eb7677f5a6f,7,1767702672686,1.437,-7.6990504,-5.274,-0.0092124995,0.0259875,0.032175,0.126718521118164,0.1706455051898956,-0.3701768493652349,15.42126,73.9813033,0.109121114,0.4268587258588737,0.0,0.04237276163158946,-0.0009345193705575757
bcad4cd6-2134-49d6-ad24-1eb7677f5a6f,7,1767702672697,1.8010501,-7.8139505,-5.46495,-0.00495,0.0048125,0.0363,0.0487403869628906,-0.1537672877311706,-0.1073556518554692,15.42126,73.9813033,0.109121114,0.1937659414933534,0.0,0.036950678698097005,0.000963590048559203
bcad4cd6-2134-49d6-ad24-1eb7677f5a6f,7,1767702672708,1.8010501,-7.8139505,-5.46495,-0.00495,0.0048125,0.0363,0.0487403869628906,-0.1537672877311706,-0.1073556518554692,15.42126,73.9813033,0.109121114,0.1937659414933534,0.0,0.036950678698097005,0.007710808629633602
bcad4cd6-2134-49d6-ad24-1eb7677f5a6f,7,1767702672719,1.8010501,-7.8139505,-5.46495,-0.00495,0.0048125,0.0363,0.0487403869628906,-0.1537672877311706,-0.1073556518554692,15.42126,73.9813033,0.109121114,0.1937659414933534,0.0,0.036950678698097005,0.013432084316495948
bcad4cd6-2134-49d6-ad24-1eb7677f5a6f,7,1767702672731,1.7820001,-7.6420503,-5.5800004,-0.000825,-0.000825,0.0182875,-0.14066743850708,-0.1634553372859954,-0.1836610412597661,15.42126,73.9813033,0.109121114,0.2832602224457984,0.0,0.01832468024959781,-0.0008806020368457046
bcad4cd6-2134-49d6-ad24-1eb7677f5a6f,7,1767702672742,1.7820001,-7.6420503,-5.5800004,-0.000825,-0.000825,0.0182875,-0.14066743850708,-0.1634553372859954,-0.1836610412597661,15.42126,73.9813033,0.109121114,0.2832602224457984,0.0,0.01832468024959781,0.0017421032385941879
bcad4cd6-2134-49d6-ad24-1eb7677f5a6f,7,1767702672753,1.1880001,-7.4500504,-5.46495,-0.00055,-0.0028875,0.0105875,-0.17850923538208,0.3758802711963653,-0.5037046051025396,15.42126,73.9813033,0.109121114,0.6533527795860774,0.0,0.010987962163203874,-0.004821563888060218
bcad4cd6-2134-49d6-ad24-1eb7677f5a6f,7,1767702672764,1.1880001,-7.4500504,-5.46495,-0.00055,-0.0028875,0.0105875,-0.17850923538208,0.3758802711963653,-0.5037046051025396,15.42126,73.9813033,0.109121114,0.6533527795860774,0.0,0.010987962163203874,-0.005916295895567606
bcad4cd6-2134-49d6-ad24-1eb7677f5a6f,7,1767702672775,1.4940001,-7.6990504,-5.46495,-0.01265,-0.009075,0.0045375,-0.0213932991027832,0.1081649959087371,-0.2517085647583013,15.42126,73.9813033,0.109121114,0.2747990923549825,0.0,0.016216258238261994,-0.0035201448674040893
bcad4cd6-2134-49d6-ad24-1eb7677f5a6f,7,1767702672786,1.4940001,-7.6990504,-5.46495,-0.01265,-0.009075,0.0045375,-0.0213932991027832,0.1081649959087371,-0.2517085647583013,15.42126,73.9813033,0.109121114,0.2747990923549825,0.0,0.016216258238261994,-0.007815409207846116
bcad4cd6-2134-49d6-ad24-1eb7677f5a6f,7,1767702672797,1.3219501,-7.4689503,-5.235,-0.0226875,-0.0209,-0.00275,0.0317749977111816,0.2225751280784607,-0.5965610122680669,15.42126,73.9813033,0.109121114,0.6375220619531449,0.0,0.030969261474081036,0.0015793425119619165
bcad4cd6-2134-49d6-ad24-1eb7677f5a6f,7,1767702672808,1.3219501,-7.4689503,-5.235,-0.0226875,-0.0209,-0.00275,0.0317749977111816,0.2225751280784607,-0.5965610122680669,15.42126,73.9813033,0.109121114,0.6375220619531449,0.0,0.030969261474081036,-0.004347350573738253
bcad4cd6-2134-49d6-ad24-1eb7677f5a6f,7,1767702672819,1.6480501,-7.39305,-5.21595,-0.00825,-0.0375375,-0.0077,0.024209976196289,-0.1105731427669525,-0.6139894104003911,15.42126,73.9813033,0.109121114,0.6243360785126915,0.0,0.03919714793514957,-0.0020684780631364625
bcad4cd6-2134-49d6-ad24-1eb7677f5a6f,7,1767702672830,1.6480501,-7.39305,-5.21595,-0.00825,-0.0375375,-0.0077,0.024209976196289,-0.1105731427669525,-0.6139894104003911,15.42126,73.9813033,0.109121114,0.6243360785126915,0.0,0.03919714793514957,-0.007492735506251811
bcad4cd6-2134-49d6-ad24-1eb7677f5a6f,7,1767702672841,1.3219501,-7.5079503,-5.274,-0.0011,-0.057475,-0.007425,0.029585838317871,0.2287268638610839,-0.542920646667481,15.42126,73.9813033,0.109121114,0.5898763672656616,0.0,0.05796305935680069,0.006868351037855631
bcad4cd6-2134-49d6-ad24-1eb7677f5a6f,7,1767702672852,1.3219501,-7.5079503,-5.274,-0.0011,-0.057475,-0.007425,0.029585838317871,0.2287268638610839,-0.542920646667481,15.42126,73.9813033,0.109121114,0.5898763672656616,0.0,0.05796305935680069,0.0038750657572172494
bcad4cd6-2134-49d6-ad24-1eb7677f5a6f,7,1767702672863,1.3219501,-7.5079503,-5.274,-0.0011,-0.057475,-0.007425,0.029585838317871,0.2287268638610839,-0.542920646667481,15.42126,73.9813033,0.109121114,0.5898763672656616,0.0,0.05796305935680069,0.002541996558526722
bcad4cd6-2134-49d6-ad24-1eb7677f5a6f,7,1767702672874,1.7050501,-7.7380505,-5.44605,-0.007975,-0.0675125,0.00825,0.0392436981201171,-0.1034556627273559,-0.1958518600463872,15.42126,73.9813033,0.109121114,0.2249468672289724,0.0,0.0684806599066481,0.01346589473526263
bcad4cd6-2134-49d6-ad24-1eb7677f5a6f,7,1767702672884,1.7050501,-7.7380505,-5.44605,-0.007975,-0.0675125,0.00825,0.0392436981201171,-0.1034556627273559,-0.1958518600463872,15.42126,73.9813033,0.109121114,0.2249468672289724,0.0,0.0684806599066481,0.015513774176644752
bcad4cd6-2134-49d6-ad24-1eb7677f5a6f,8,1767702672895,1.8970501,-7.5649505,-5.4079504,-0.0055,-0.0534875,0.0053625,-0.0137929916381835,-0.3326909244060516,-0.3251529312133794,15.4212617,73.981305,0.08904695,0.4654008234598826,0.0,0.05403627543141736,0.0044969999347883
bcad4cd6-2134-49d6-ad24-1eb7677f5a6f,8,1767702672906,1.8970501,-7.5649505,-5.4079504,-0.0055,-0.0534875,0.0053625,-0.0137929916381835,-0.3326909244060516,-0.3251529312133794,15.4212617,73.981305,0.08904695,0.4654008234598826,0.0,0.05403627543141736,0.008910334222821076
bcad4cd6-2134-49d6-ad24-1eb7677f5a6f,8,1767702672917,1.41795,-7.5460505,-5.2930503,-0.0015125,-0.0292875,-0.0012375,0.0487828254699707,0.1217122972011566,-0.4851575469970708,15.4212617,73.981305,0.08904695,0.5025649139753304,0.0,0.02935262711836881,-0.010853610413442082
bcad4cd6-2134-49d6-ad24-1eb7677f5a6f,8,1767702672928,1.41795,-7.5460505,-5.2930503,-0.0015125,-0.0292875,-0.0012375,0.0487828254699707,0.1217122972011566,-0.4851575469970708,15.4212617,73.981305,0.08904695,0.5025649139753304,0.0,0.02935262711836881,-0.005937096007603043
bcad4cd6-2134-49d6-ad24-1eb7677f5a6f,8,1767702672938,1.60905,-7.7760005,-5.4079504,-0.0039875,-0.0031625,-0.0067375,0.0936717987060546,-0.0282124280929565,-0.2031484222412114,15.4212617,73.981305,0.08904695,0.2254764476188619,0.0,0.008443664414814221,-0.022416953688653332
bcad4cd6-2134-49d6-ad24-1eb7677f5a6f,8,1767702672949,1.60905,-7.7760005,-5.4079504,-0.0039875,-0.0031625,-0.0067375,0.0936717987060546,-0.0282124280929565,-0.2031484222412114,15.4212617,73.981305,0.08904695,0.2254764476188619,0.0,0.008443664414814221,-0.018886072890628772
bcad4cd6-2134-49d6-ad24-1eb7677f5a6f,8,1767702672960,1.60905,-7.7760005,-5.4079504,-0.0039875,-0.0031625,-0.0067375,0.0936717987060546,-0.0282124280929565,-0.2031484222412114,15.4212617,73.981305,0.08904695,0.2254764476188619,0.0,0.008443664414814221,-0.016556512477985043
bcad4cd6-2134-49d6-ad24-1eb7677f5a6f,8,1767702672970,1.30305,-7.5460505,-5.427,-0.0092124995,0.021724999,0.0199375,-0.0692100524902343,0.2396553754806518,-0.4275184249877934,15.4212617,73.981305,0.08904695,0.4949714477285703,0.0,0.03089254982738559,0.006842365858402775
bcad4cd6-2134-49d6-ad24-1eb7677f5a6f,8,1767702672981,1.30305,-7.5460505,-5.427,-0.0092124995,0.021724999,0.0199375,-0.0692100524902343,0.2396553754806518,-0.4275184249877934,15.4212617,73.981305,0.08904695,0.4949714477285703,0.0,0.03089254982738559,0.006359372746059271
bcad4cd6-2134-49d6-ad24-1eb7677f5a6f,8,1767702672992,1.6669501,-7.5649505,-5.44605,-0.012375,0.030524999,0.0312125,-0.0543222427368164,-0.1127798855304718,-0.3415780639648442,15.4212617,73.981305,0.08904695,0.3637935986492824,0.0,0.04537770757982383,0.0189860494898396
bcad4cd6-2134-49d6-ad24-1eb7677f5a6f,8,1767702673003,1.6669501,-7.5649505,-5.44605,-0.012375,0.030524999,0.0312125,-0.0543222427368164,-0.1127798855304718,-0.3415780639648442,15.4212617,73.981305,0.08904695,0.3637935986492824,0.0,0.04537770757982383,0.01589813174254043
bcad4cd6-2134-49d6-ad24-1eb7677f5a6f,8,1767702673013,1.45605,-7.6990504,-5.3880005,-0.0089375,0.0301125,0.0328625,0.0595245361328125,0.1099793314933776,-0.3015609359741216,15.4212617,73.981305,0.08904695,0.3264622824510437,0.0,0.04545971258983057,0.011872634747924193
bcad4cd6-2134-49d6-ad24-1eb7677f5a6f,8,1767702673024,1.45605,-7.6990504,-5.3880005,-0.0089375,0.0301125,0.0328625,0.0595245361328125,0.1099793314933776,-0.3015609359741216,15.4212617,73.981305,0.08904695,0.3264622824510437,0.0,0.04545971258983057,0.006997153680957747
bcad4cd6-2134-49d6-ad24-1eb7677f5a6f,8,1767702673034,2.01195,-7.7569504,-5.4079504,0.0061875,0.0301125,0.029975,0.0999679565429687,-0.4229149520397186,-0.1520839309692387,15.4212617,73.981305,0.08904695,0.4604130439650798,0.0,0.042936562944651264,-0.0008925092460302986
bcad4cd6-2134-49d6-ad24-1eb7677f5a6f,8,1767702673045,2.01195,-7.7569504,-5.4079504,0.0061875,0.0301125,0.029975,0.0999679565429687,-0.4229149520397186,-0.1520839309692387,15.4212617,73.981305,0.08904695,0.4604130439650798,0.0,0.042936562944651264,-0.006458240987647547
bcad4cd6-2134-49d6-ad24-1eb7677f5a6f,8,1767702673055,2.01195,-7.7569504,-5.4079504,0.0061875,0.0301125,0.029975,0.0999679565429687,-0.4229149520397186,-0.1520839309692387,15.4212617,73.981305,0.08904695,0.4604130439650798,0.0,0.042936562944651264,-0.01192309309784782
bcad4cd6-2134-49d6-ad24-1eb7677f5a6f,8,1767702673066,1.8390001,-7.5649505,-5.2930503,-0.000275,0.0380875,0.0281875,0.0730376243591308,-0.2884749472141266,-0.4005237197875981,15.4212617,73.981305,0.08904695,0.4989704799431656,0.0,0.047384263606180484,-0.012537136290198507
bcad4cd6-2134-49d6-ad24-1eb7677f5a6f,8,1767702673077,1.8390001,-7.5649505,-5.2930503,-0.000275,0.0380875,0.0281875,0.0730376243591308,-0.2884749472141266,-0.4005237197875981,15.4212617,73.981305,0.08904695,0.4989704799431656,0.0,0.047384263606180484,-0.016900749161244892
bcad4cd6-2134-49d6-ad24-1eb7677f5a6f,8,1767702673087,1.6290001,-7.5270004,-5.3500504,0.002475,0.062425,-0.0061875,-0.0058655738830566,-0.0802164673805236,-0.4331145858764653,15.4212617,73.981305,0.08904695,0.4405193878763229,0.0,0.0627797053692513,-0.00489797608489706
bcad4cd6-2134-49d6-ad24-1eb7677f5a6f,8,1767702673098,1.6290001,-7.5270004,-5.3500504,0.002475,0.062425,-0.0061875,-0.0058655738830566,-0.0802164673805236,-0.4331145858764653,15.4212617,73.981305,0.08904695,0.4405193878763229,0.0,0.0627797053692513,-0.007090175288611235
bcad4cd6-2134-49d6-ad24-1eb7677f5a6f,8,1767702673109,1.8199501,-7.833,-5.4079504,0.0083875,0.075625,-0.0319,0.1230182647705078,-0.2036543190479278,-0.1219945526123051,15.4212617,73.981305,0.08904695,0.2673784695915108,0.0,0.08250515608887726,0.011804677954470412
bcad4cd6-2134-49d6-ad24-1eb7677f5a6f,8,1767702673120,1.8199501,-7.833,-5.4079504,0.0083875,0.075625,-0.0319,0.1230182647705078,-0.2036543190479278,-0.1219945526123051,15.4212617,73.981305,0.08904695,0.2673784695915108,0.0,0.08250515608887726,0.012403487349554288
bcad4cd6-2134-49d6-ad24-1eb7677f5a6f,8,1767702673130,1.57095,-7.5079503,-5.3689504,0.0127875,0.0658625,-0.043175,-0.0491046905517578,0.0139355063438415,-0.4472947692871099,15.4212617,73.981305,0.08904695,0.4501978227433491,0.0,0.07978389365968547,0.011665571363637387
bcad4cd6-2134-49d6-ad24-1eb7677f5a6f,8,1767702673141,1.57095,-7.5079503,-5.3689504,0.0127875,0.0658625,-0.043175,-0.0491046905517578,0.0139355063438415,-0.4472947692871099,15.4212617,73.981305,0.08904695,0.4501978227433491,0.0,0.07978389365968547,0.014867447674361808
bcad4cd6-2134-49d6-ad24-1eb7677f5a6f,8,1767702673152,1.57095,-7.5079503,-5.3689504,0.0127875,0.0658625,-0.043175,-0.0491046905517578,0.0139355063438415,-0.4472947692871099,15.4212617,73.981305,0.08904695,0.4501978227433491,0.0,0.07978389365968547,0.019006927259882185
bcad4cd6-2134-49d6-ad24-1eb7677f5a6f,8,1767702673162,1.8390001,-7.623,-5.3500504,0.0105875,0.036849998,-0.0253,0.0367441177368164,-0.2112889587879181,-0.3195252990722661,15.4212617,73.981305,0.08904695,0.3848240780423708,0.0,0.04593590653127468,-0.010137713284799869
bcad4cd6-2134-49d6-ad24-1eb7677f5a6f,8,1767702673173,1.8390001,-7.623,-5.3500504,0.0105875,0.036849998,-0.0253,0.0367441177368164,-0.2112889587879181,-0.3195252990722661,15.4212617,73.981305,0.08904695,0.3848240780423708,0.0,0.04593590653127468,-0.005300899463766856
bcad4cd6-2134-49d6-ad24-1eb7677f5a6f,8,1767702673184,1.45605,-7.6800003,-5.235,0.009075,0.026124999,-0.0224125,0.1429667472839355,0.1744256019592285,-0.4048505401611333,15.4212617,73.981305,0.08904695,0.4634304061200013,0.0,0.03559763129760182,-0.011110448468416377
bcad4cd6-2134-49d6-ad24-1eb7677f5a6f,8,1767702673194,1.45605,-7.6800003,-5.235,0.009075,0.026124999,-0.0224125,0.1429667472839355,0.1744256019592285,-0.4048505401611333,15.4212617,73.981305,0.08904695,0.4634304061200013,0.0,0.03559763129760182,-0.007294220781580162
bcad4cd6-2134-49d6-ad24-1eb7677f5a6f,8,1767702673205,1.8580501,-7.6800003,-5.3880005,0.012375,0.0022,-0.025024999,0.0287079811096191,-0.202551394701004,-0.2484374618530278,15.4212617,73.981305,0.08904695,0.3218266429720927,0.0,0.028004128266203913,-0.012107296755564594
bcad4cd6-2134-49d6-ad24-1eb7677f5a6f,8,1767702673216,1.8580501,-7.6800003,-5.3880005,0.012375,0.0022,-0.025024999,0.0287079811096191,-0.202551394701004,-0.2484374618530278,15.4212617,73.981305,0.08904695,0.3218266429720927,0.0,0.028004128266203913,-0.010571502986533532
bcad4cd6-2134-49d6-ad24-1eb7677f5a6f,8,1767702673227,1.6480501,-7.5840006,-5.2540503,0.018975,-0.0042625,-0.03025,0.0728130340576171,-0.0181180536746978,-0.438097534179688,15.4212617,73.981305,0.08904695,0.4444766037171786,0.0,0.03596223062116698,-0.002398127808425654
bcad4cd6-2134-49d6-ad24-1eb7677f5a6f,8,1767702673237,1.6480501,-7.5840006,-5.2540503,0.018975,-0.0042625,-0.03025,0.0728130340576171,-0.0181180536746978,-0.438097534179688,15.4212617,73.981305,0.08904695,0.4444766037171786,0.0,0.03596223062116698,-0.003444367910678984
bcad4cd6-2134-49d6-ad24-1eb7677f5a6f,8,1767702673248,1.26495,-7.5460505,-5.3500504,0.030524999,-0.0023375,-0.047849998,-0.047189712524414,0.3615799248218536,-0.4808469390869145,15.4212617,73.981305,0.08904695,0.6034738518209128,0.0,0.056805473141238814,0.015271528534891474
bcad4cd6-2134-49d6-ad24-1eb7677f5a6f,8,1767702673259,1.26495,-7.5460505,-5.3500504,0.030524999,-0.0023375,-0.047849998,-0.047189712524414,0.3615799248218536,-0.4808469390869145,15.4212617,73.981305,0.08904695,0.6034738518209128,0.0,0.056805473141238814,0.012339252422347872
bcad4cd6-2134-49d6-ad24-1eb7677f5a6f,8,1767702673269,1.26495,-7.5460505,-5.3500504,0.030524999,-0.0023375,-0.047849998,-0.047189712524414,0.3615799248218536,-0.4808469390869145,15.4212617,73.981305,0.08904695,0.6034738518209128,0.0,0.056805473141238814,0.008940868128424824
bcad4cd6-2134-49d6-ad24-1eb7677f5a6f,8,1767702673280,1.59,-7.7760005,-5.3880005,0.0325875,-0.013062499,-0.0435875,0.0573458671569824,0.0865007936954498,-0.2176023101806645,15.4212617,73.981305,0.08904695,0.2410844275059905,0.0,0.055968242715177335,0.004604862881874588
bcad4cd6-2134-49d6-ad24-1eb7677f5a6f,8,1767702673291,1.59,-7.7760005,-5.3880005,0.0325875,-0.013062499,-0.0435875,0.0573458671569824,0.0865007936954498,-0.2176023101806645,15.4212617,73.981305,0.08904695,0.2410844275059905,0.0,0.055968242715177335,0.0013640450611242375
bcad4cd6-2134-49d6-ad24-1eb7677f5a6f,8,1767702673301,1.3800001,-7.4119506,-5.31195,0.0273625,-0.01815,-0.0342375,-0.1012887954711914,0.2349492311477661,-0.5908485031127935,15.4212617,73.981305,0.08904695,0.6438652925384004,0.0,0.04743769927494376,-0.009828397997078008
bcad4cd6-2134-49d6-ad24-1eb7677f5a6f,8,1767702673312,1.3800001,-7.4119506,-5.31195,0.0273625,-0.01815,-0.0342375,-0.1012887954711914,0.2349492311477661,-0.5908485031127935,15.4212617,73.981305,0.08904695,0.6438652925384004,0.0,0.04743769927494376,-0.011652227905585125
bcad4cd6-2134-49d6-ad24-1eb7677f5a6f,8,1767702673323,1.8010501,-7.5460505,-5.31195,0.012925,-0.04895,0.025024999,-0.0114483833312988,-0.1496110558509826,-0.4088845825195317,15.4212617,73.981305,0.08904695,0.4355469381546815,0.0,0.05647485015429435,-0.0034220318136021287
bcad4cd6-2134-49d6-ad24-1eb7677f5a6f,8,1767702673334,1.8010501,-7.5460505,-5.31195,0.012925,-0.04895,0.025024999,-0.0114483833312988,-0.1496110558509826,-0.4088845825195317,15.4212617,73.981305,0.08904695,0.4355469381546815,0.0,0.05647485015429435,-0.003126445851444722
bcad4cd6-2134-49d6-ad24-1eb7677f5a6f,8,1767702673344,1.5520501,-7.7179503,-5.2540503,0.00715,-0.0482625,0.0306625,0.1192479133605957,0.1076287031173706,-0.3466544723510747,15.4212617,73.981305,0.08904695,0.382064557079802,0.0,0.05762447667875171,-0.0005932256341213595
bcad4cd6-2134-49d6-ad24-1eb7677f5a6f,8,1767702673355,1.5520501,-7.7179503,-5.2540503,0.00715,-0.0482625,0.0306625,0.1192479133605957,0.1076287031173706,-0.3466544723510747,15.4212617,73.981305,0.08904695,0.382064557079802,0.0,0.05762447667875171,0.001762761808394237
bcad4cd6-2134-49d6-ad24-1eb7677f5a6f,8,1767702673366,1.5520501,-7.7179503,-5.2540503,0.00715,-0.0482625,0.0306625,0.1192479133605957,0.1076287031173706,-0.3466544723510747,15.4212617,73.981305,0.08904695,0.382064557079802,0.0,0.05762447667875171,0.004880587894063146
bcad4cd6-2134-49d6-ad24-1eb7677f5a6f,8,1767702673377,2.0310001,-7.7760005,-5.484,0.0020625,-0.0394625,0.0438625,-0.0172247886657714,-0.3438099026679992,-0.0864768600463872,15.4212617,73.981305,0.08904695,0.3549368814883035,0.0,0.059037799067631236,0.0098821278953948
bcad4cd6-2134-49d6-ad24-1eb7677f5a6f,8,1767702673388,2.0310001,-7.7760005,-5.484,0.0020625,-0.0394625,0.0438625,-0.0172247886657714,-0.3438099026679992,-0.0864768600463872,15.4212617,73.981305,0.08904695,0.3549368814883035,0.0,0.059037799067631236,0.013590736929462473
bcad4cd6-2134-49d6-ad24-1eb7677f5a6f,8,1767702673398,2.0310001,-7.7760005,-5.484,0.0020625,-0.0394625,0.0438625,-0.0172247886657714,-0.3438099026679992,-0.0864768600463872,15.4212617,73.981305,0.08904695,0.3549368814883035,0.0,0.059037799067631236,0.01704112116897659
bcad4cd6-2134-49d6-ad24-1eb7677f5a6f,8,1767702673409,1.9729501,-7.5840006,-5.3500504,0.004675,-0.012925,0.027224999,-0.016326904296875,-0.3389185965061188,-0.3275142288208013,15.4212617,73.981305,0.08904695,0.4715908745318137,0.0,0.03049773467898888,-0.008678643288611378
bcad4cd6-2134-49d6-ad24-1eb7677f5a6f,8,1767702673420,1.3800001,-7.5840006,-5.3310003,0.0026125,0.0075625,0.012375,-0.027933120727539,0.2373813688755035,-0.4406924819946294,15.4212617,73.981305,0.08904695,0.5013382463061978,0.0,0.014736254188225717,-0.022577867122237128
bcad4cd6-2134-49d6-ad24-1eb7677f5a6f,8,1767702673430,1.3800001,-7.5840006,-5.3310003,0.0026125,0.0075625,0.012375,-0.027933120727539,0.2373813688755035,-0.4406924819946294,15.4212617,73.981305,0.08904695,0.5013382463061978,0.0,0.014736254188225717,-0.021923492516841357
bcad4cd6-2134-49d6-ad24-1eb7677f5a6f,8,1767702673441,1.7820001,-7.7380505,-5.4079504,-0.0044,0.0374,0.010725,0.0115103721618652,-0.1297220885753631,-0.2036519622802739,15.4212617,73.981305,0.08904695,0.2417321465429559,0.0,0.03915540352237479,0.0017969492776602246
bcad4cd6-2134-49d6-ad24-1eb7677f5a6f,8,1767702673451,1.7820001,-7.7380505,-5.4079504,-0.0044,0.0374,0.010725,0.0115103721618652,-0.1297220885753631,-0.2036519622802739,15.4212617,73.981305,0.08904695,0.2417321465429559,0.0,0.03915540352237479,-0.00028029854495307296
bcad4cd6-2134-49d6-ad24-1eb7677f5a6f,8,1767702673462,1.7820001,-7.7380505,-5.4079504,-0.0044,0.0374,0.010725,0.0115103721618652,-0.1297220885753631,-0.2036519622802739,15.4212617,73.981305,0.08904695,0.2417321465429559,0.0,0.03915540352237479,-0.0036398626680172893
bcad4cd6-2134-49d6-ad24-1eb7677f5a6f,8,1767702673473,1.3219501,-7.39305,-5.2930503,-0.0132,0.0490875,0.02695,-0.1080164909362793,0.2629117369651794,-0.6262984848022466,15.4212617,73.981305,0.08904695,0.6877789876216232,0.0,0.057533687142838325,0.01030375967536847
bcad4cd6-2134-49d6-ad24-1eb7677f5a6f,8,1767702673484,1.3219501,-7.39305,-5.2930503,-0.0132,0.0490875,0.02695,-0.1080164909362793,0.2629117369651794,-0.6262984848022466,15.4212617,73.981305,0.08904695,0.6877789876216232,0.0,0.057533687142838325,0.0050913940855141625
bcad4cd6-2134-49d6-ad24-1eb7677f5a6f,8,1767702673495,1.6480501,-7.5460505,-5.3310003,-0.0202125,0.055,0.039049998,-0.0359234809875488,-0.0257202982902526,-0.4250875091552739,15.4212617,73.981305,0.08904695,0.4273773750097652,0.0,0.07041624457502689,0.012344165227056203
bcad4cd6-2134-49d6-ad24-1eb7677f5a6f,8,1767702673506,1.6480501,-7.5460505,-5.3310003,-0.0202125,0.055,0.039049998,-0.0359234809875488,-0.0257202982902526,-0.4250875091552739,15.4212617,73.981305,0.08904695,0.4273773750097652,0.0,0.07041624457502689,0.006690301038560658
bcad4cd6-2134-49d6-ad24-1eb7677f5a6f,8,1767702673516,1.45605,-7.7569504,-5.2930503,-0.0218625,0.0576125,0.0363,0.1086454391479492,0.1909396648406982,-0.3095517730712895,15.4212617,73.981305,0.08904695,0.3795840977553038,0.0,0.0715182428650201,0.002511681325252115
bcad4cd6-2134-49d6-ad24-1eb7677f5a6f,8,1767702673527,1.45605,-7.7569504,-5.2930503,-0.0218625,0.0576125,0.0363,0.1086454391479492,0.1909396648406982,-0.3095517730712895,15.4212617,73.981305,0.08904695,0.3795840977553038,0.0,0.0715182428650201,-0.0020205798186353403
bcad4cd6-2134-49d6-ad24-1eb7677f5a6f,8,1767702673538,1.7629501,-7.623,-5.46495,-0.0202125,0.055825,0.0336875,-0.0938100814819336,-0.1180897951126098,-0.2674069976806645,15.4212617,73.981305,0.08904695,0.3070049405237188,0.0,0.06826289942201401,-0.008729434252797822
bcad4cd6-2134-49d6-ad24-1eb7677f5a6f,8,1767702673549,1.7629501,-7.623,-5.46495,-0.0202125,0.055825,0.0336875,-0.0938100814819336,-0.1180897951126098,-0.2674069976806645,15.4212617,73.981305,0.08904695,0.3070049405237188,0.0,0.06826289942201401,-0.010837564372367249
bcad4cd6-2134-49d6-ad24-1eb7677f5a6f,8,1767702673559,1.7629501,-7.623,-5.46495,-0.0202125,0.055825,0.0336875,-0.0938100814819336,-0.1180897951126098,-0.2674069976806645,15.4212617,73.981305,0.08904695,0.3070049405237188,0.0,0.06826289942201401,-0.011413695944995498
bcad4cd6-2134-49d6-ad24-1eb7677f5a6f,8,1767702673571,1.9729501,-7.5840006,-5.3880005,-0.01265,0.0726,0.0017875,-0.0425887107849121,-0.3338750004768371,-0.3059554672241216,15.4212617,73.981305,0.08904695,0.4548571887461596,0.0,0.07371551842217484,-0.00491243705045263
bcad4cd6-2134-49d6-ad24-1eb7677f5a6f,8,1767702673581,1.9729501,-7.5840006,-5.3880005,-0.01265,0.0726,0.0017875,-0.0425887107849121,-0.3338750004768371,-0.3059554672241216,15.4212617,73.981305,0.08904695,0.4548571887461596,0.0,0.07371551842217484,-0.002251022419484614
bcad4cd6-2134-49d6-ad24-1eb7677f5a6f,8,1767702673592,1.41795,-7.623,-5.3500504,-0.012375,0.0804375,-0.0144375,-0.0077457427978515,0.2246161997318267,-0.392290649414063,15.4212617,73.981305,0.08904695,0.4521110342948573,0.0,0.08265454275174475,0.010838966579864853
bcad4cd6-2134-49d6-ad24-1eb7677f5a6f,8,1767702673603,1.41795,-7.623,-5.3500504,-0.012375,0.0804375,-0.0144375,-0.0077457427978515,0.2246161997318267,-0.392290649414063,15.4212617,73.981305,0.08904695,0.4521110342948573,0.0,0.08265454275174475,0.016245392518596045
bcad4cd6-2134-49d6-ad24-1eb7677f5a6f,8,1767702673614,1.8970501,-7.79505,-5.44605,-0.0176,0.066825,-0.0055,0.0252790451049804,-0.1989256143569946,-0.1156268692016606,15.4212617,73.981305,0.08904695,0.2314735471929899,0.0,0.06932236742206659,0.009239772990692683
bcad4cd6-2134-49d6-ad24-1eb7677f5a6f,8,1767702673625,1.8970501,-7.79505,-5.44605,-0.0176,0.066825,-0.0055,0.0252790451049804,-0.1989256143569946,-0.1156268692016606,15.4212617,73.981305,0.08904695,0.2314735471929899,0.0,0.06932236742206659,0.01607032772628261
bcad4cd6-2134-49d6-ad24-1eb7677f5a6f,8,1767702673636,1.41795,-7.4689503,-5.19705,-0.01595,0.039325,-0.0033,0.0306825637817382,0.2113506197929382,-0.6035037612915044,15.4212617,73.981305,0.08904695,0.6401775488878634,0.0,0.04256463467480955,-0.003818695020869818
bcad4cd6-2134-49d6-ad24-1eb7677f5a6f,8,1767702673647,1.41795,-7.4689503,-5.19705,-0.01595,0.039325,-0.0033,0.0306825637817382,0.2113506197929382,-0.6035037612915044,15.4212617,73.981305,0.08904695,0.6401775488878634,0.0,0.04256463467480955,0.0026119517623264038
bcad4cd6-2134-49d6-ad24-1eb7677f5a6f,8,1767702673658,1.6290001,-7.5079503,-5.3500504,-0.0064625,0.005775,0.0127875,-0.0613942146301269,0.0293375551700592,-0.4483008956909184,15.4212617,73.981305,0.08904695,0.4534353700481316,0.0,0.015447805264826458,-0.01895577422693916
bcad4cd6-2134-49d6-ad24-1eb7677f5a6f,8,1767702673668,1.6290001,-7.5079503,-5.3500504,-0.0064625,0.005775,0.0127875,-0.0613942146301269,0.0293375551700592,-0.4483008956909184,15.4212617,73.981305,0.08904695,0.4534353700481316,0.0,0.015447805264826458,-0.014657876320224951
bcad4cd6-2134-49d6-ad24-1eb7677f5a6f,8,1767702673679,1.6290001,-7.5079503,-5.3500504,-0.0064625,0.005775,0.0127875,-0.0613942146301269,0.0293375551700592,-0.4483008956909184,15.4212617,73.981305,0.08904695,0.4534353700481316,0.0,0.015447805264826458,-0.011873932526428021
bcad4cd6-2134-49d6-ad24-1eb7677f5a6f,8,1767702673690,1.4749501,-7.7569504,-5.3500504,0.0001375,-0.0215875,-0.0037125,0.0756902694702148,0.2156330943107605,-0.2749820327758794,15.4212617,73.981305,0.08904695,0.3575496701215956,0.0,0.021904833228080053,-0.0042824220743021444
bcad4cd6-2134-49d6-ad24-1eb7677f5a6f,8,1767702673701,1.4749501,-7.7569504,-5.3500504,0.0001375,-0.0215875,-0.0037125,0.0756902694702148,0.2156330943107605,-0.2749820327758794,15.4212617,73.981305,0.08904695,0.3575496701215956,0.0,0.021904833228080053,-0.0048006661224668035
bcad4cd6-2134-49d6-ad24-1eb7677f5a6f,8,1767702673712,1.60905,-7.5840006,-5.5030503,0.002475,-0.0397375,-0.0066,-0.142040729522705,0.066954106092453,-0.30394702911377,15.4212617,73.981305,0.08904695,0.3421143342116326,0.0,0.040357831101906355,0.01160018464096231
bcad4cd6-2134-49d6-ad24-1eb7677f5a6f,8,1767702673723,1.60905,-7.5840006,-5.5030503,0.002475,-0.0397375,-0.0066,-0.142040729522705,0.066954106092453,-0.30394702911377,15.4212617,73.981305,0.08904695,0.3421143342116326,0.0,0.040357831101906355,0.008232487689223756
bcad4cd6-2134-49d6-ad24-1eb7677f5a6f,8,1767702673734,1.9540501,-7.5460505,-5.46495,0.0053625,-0.042075,-0.0149875,-0.117199420928955,-0.284939169883728,-0.2951703643798833,15.4212617,73.981305,0.08904695,0.4266750271673554,0.0,0.044985410829512275,0.008464321695531489
bcad4cd6-2134-49d6-ad24-1eb7677f5a6f,8,1767702673745,1.9540501,-7.5460505,-5.46495,0.0053625,-0.042075,-0.0149875,-0.117199420928955,-0.284939169883728,-0.2951703643798833,15.4212617,73.981305,0.08904695,0.4266750271673554,0.0,0.044985410829512275,0.0033643093587233455
bcad4cd6-2134-49d6-ad24-1eb7677f5a6f,8,1767702673756,1.437,-7.623,-5.3500504,0.0031625,-0.0341,-0.039325,0.003854751586914,0.2235337495803833,-0.3893762207031255,15.4212617,73.981305,0.08904695,0.44899447386389,0.0,0.05214659175104352,0.005050902619312882
bcad4cd6-2134-49d6-ad24-1eb7677f5a6f,8,1767702673767,1.437,-7.623,-5.3500504,0.0031625,-0.0341,-0.039325,0.003854751586914,0.2235337495803833,-0.3893762207031255,15.4212617,73.981305,0.08904695,0.44899447386389,0.0,0.05214659175104352,-0.0004867966472680415
bcad4cd6-2134-49d6-ad24-1eb7677f5a6f,8,1767702673778,1.8970501,-7.7760005,-5.44605,-0.0064625,-0.0298375,-0.0526625,0.0287280082702636,-0.1956618726253509,-0.1308789825439458,15.4212617,73.981305,0.08904695,0.2371458937662085,0.0,0.060871826149295045,0.002914965559211339
bcad4cd6-2134-49d6-ad24-1eb7677f5a6f,8,1767702673789,1.8970501,-7.7760005,-5.44605,-0.0064625,-0.0298375,-0.0526625,0.0287280082702636,-0.1956618726253509,-0.1308789825439458,15.4212617,73.981305,0.08904695,0.2371458937662085,0.0,0.060871826149295045,-0.001958551582421524
bcad4cd6-2134-49d6-ad24-1eb7677f5a6f,8,1767702673800,1.3800001,-7.4689503,-5.46495,-0.0066,-0.0209,-0.0633875,-0.1779522895812988,0.2681413888931274,-0.4584346389770513,15.4212617,73.981305,0.08904695,0.5601152917201789,0.0,0.06706970371374843,9.384930602574146e-06
bcad4cd6-2134-49d6-ad24-1eb7677f5a6f,8,1767702673810,1.41795,-7.4500504,-5.19705,-0.0066,-0.0209,-0.0633875,0.0327634811401367,0.2093883752822876,-0.6187930679321294,15.4212617,73.981305,0.08904695,0.6540808805649597,0.0,0.06706970371374843,-0.0034215216470113844
bcad4cd6-2134-49d6-ad24-1eb7677f5a6f,8,1767702673821,1.41795,-7.4500504,-5.19705,-0.0066,-0.0209,-0.0633875,0.0327634811401367,0.2093883752822876,-0.6187930679321294,15.4212617,73.981305,0.08904695,0.6540808805649597,0.0,0.06706970371374843,-0.005930782943359627
bcad4cd6-2134-49d6-ad24-1eb7677f5a6f,8,1767702673832,1.5520501,-7.5079503,-5.3310003,0.0026125,-0.0429,-0.049225,-0.0345239639282226,0.1067139506340026,-0.4726987457275395,15.4212617,73.981305,0.08904695,0.4858228849669627,0.0,0.06534780624665222,-0.009146777766852623
bcad4cd6-2134-49d6-ad24-1eb7677f5a6f,8,1767702673843,1.5520501,-7.5079503,-5.3310003,0.0026125,-0.0429,-0.049225,-0.0345239639282226,0.1067139506340026,-0.4726987457275395,15.4212617,73.981305,0.08904695,0.4858228849669627,0.0,0.06534780624665222,-0.009561248587024824
bcad4cd6-2134-49d6-ad24-1eb7677f5a6f,8,1767702673853,1.41795,-7.7569504,-5.2930503,0.0066,-0.0543125,-0.0510125,0.1325178146362304,0.277632474899292,-0.3177600479125981,15.4212617,73.981305,0.08904695,0.4422806918282608,0.0,0.07480429675159041,0.0005912381841890434
bcad4cd6-2134-49d6-ad24-1eb7677f5a6f,8,1767702673864,1.41795,-7.7569504,-5.2930503,0.0066,-0.0543125,-0.0510125,0.1325178146362304,0.277632474899292,-0.3177600479125981,15.4212617,73.981305,0.08904695,0.4422806918282608,0.0,0.07480429675159041,0.0023864144719503797
bcad4cd6-2134-49d6-ad24-1eb7677f5a6f,8,1767702673875,1.6669501,-7.6420503,-5.5030503,0.015125,-0.071775,-0.0037125,-0.094085693359375,0.0317425429821014,-0.2468724822998051,15.4212617,73.981305,0.08904695,0.266093459609124,0.0,0.07344521023354758,0.0038579631361249866
bcad4cd6-2134-49d6-ad24-1eb7677f5a6f,9,1767702673886,1.6669501,-7.6420503,-5.5030503,0.015125,-0.071775,-0.0037125,-0.094085693359375,0.0317425429821014,-0.2468724822998051,15.4212633,73.9813033,0.0972825,0.266093459609124,0.0,0.07344521023354758,0.007598973063451648
bcad4cd6-2134-49d6-ad24-1eb7677f5a6f,9,1767702673896,1.6669501,-7.6420503,-5.5030503,0.015125,-0.071775,-0.0037125,-0.094085693359375,0.0317425429821014,-0.2468724822998051,15.4212633,73.9813033,0.0972825,0.266093459609124,0.0,0.07344521023354758,0.012059851773917229
bcad4cd6-2134-49d6-ad24-1eb7677f5a6f,9,1767702673907,1.9540501,-7.5270004,-5.46495,0.0100375,-0.056925,0.0034375,-0.1129746437072753,-0.2811613082885742,-0.3101096725463872,15.4212633,73.9813033,0.0972825,0.4335700178819518,0.0,0.057905297145425305,0.0014485347134032783
bcad4cd6-2134-49d6-ad24-1eb7677f5a6f,9,1767702673918,1.9540501,-7.5270004,-5.46495,0.0100375,-0.056925,0.0034375,-0.1129746437072753,-0.2811613082885742,-0.3101096725463872,15.4212633,73.9813033,0.0972825,0.4335700178819518,0.0,0.057905297145425305,0.006544346266637645
bcad4cd6-2134-49d6-ad24-1eb7677f5a6f,9,1767702673928,1.41795,-7.5649505,-5.3500504,0.0055,-0.0394625,-0.010175,-0.0216755867004394,0.2351960241794586,-0.4394965744018559,15.4212633,73.9813033,0.0972825,0.4989431227701198,0.0,0.041122615812348315,-0.005301429812487718
bcad4cd6-2134-49d6-ad24-1eb7677f5a6f,9,1767702673939,1.41795,-7.5649505,-5.3500504,0.0055,-0.0394625,-0.010175,-0.0216755867004394,0.2351960241794586,-0.4394965744018559,15.4212633,73.9813033,0.0972825,0.4989431227701198,0.0,0.041122615812348315,-0.0008449697470729879
bcad4cd6-2134-49d6-ad24-1eb7677f5a6f,9,1767702673950,1.8970501,-7.7760005,-5.427,-0.00385,-0.028324999,-0.015675,0.0567798614501953,-0.1994710564613342,-0.1417880630493169,15.4212633,73.9813033,0.0972825,0.2512299939405747,0.0,0.03260113024651141,-0.005673287714090174
bcad4cd6-2134-49d6-ad24-1eb7677f5a6f,9,1767702673961,1.8970501,-7.7760005,-5.427,-0.00385,-0.028324999,-0.015675,0.0567798614501953,-0.1994710564613342,-0.1417880630493169,15.4212633,73.9813033,0.0972825,0.2512299939405747,0.0,0.03260113024651141,-0.0029541546446449998
bcad4cd6-2134-49d6-ad24-1eb7677f5a6f,9,1767702673972,1.41795,-7.4890504,-5.2540503,-0.0055,-0.0061875,-0.0380875,0.0133590698242187,0.2103820741176605,-0.554888305664063,15.4212633,73.9813033,0.0972825,0.5935824404573907,0.0,0.03897682404326961,0.005055801574717388
bcad4cd6-2134-49d6-ad24-1eb7677f5a6f,9,1767702673983,1.41795,-7.4890504,-5.2540503,-0.0055,-0.0061875,-0.0380875,0.0133590698242187,0.2103820741176605,-0.554888305664063,15.4212633,73.9813033,0.0972825,0.5935824404573907,0.0,0.03897682404326961,0.005611926590793917
bcad4cd6-2134-49d6-ad24-1eb7677f5a6f,9,1767702673993,1.5330001,-7.5079503,-5.3310003,0.00055,-0.01925,-0.012375,-0.0296320915222167,0.1126682460308075,-0.4759011840820317,15.4212633,73.9813033,0.0972825,0.4899531931953495,0.0,0.022891169148822433,-0.01086743611327252
bcad4cd6-2134-49d6-ad24-1eb7677f5a6f,9,1767702674004,1.5330001,-7.5079503,-5.3310003,0.00055,-0.01925,-0.012375,-0.0296320915222167,0.1126682460308075,-0.4759011840820317,15.4212633,73.9813033,0.0972825,0.4899531931953495,0.0,0.022891169148822433,-0.011972792194954271
bcad4cd6-2134-49d6-ad24-1eb7677f5a6f,9,1767702674015,1.5330001,-7.5079503,-5.3310003,0.00055,-0.01925,-0.012375,-0.0296320915222167,0.1126682460308075,-0.4759011840820317,15.4212633,73.9813033,0.0972825,0.4899531931953495,0.0,0.022891169148822433,-0.01346923454290566
bcad4cd6-2134-49d6-ad24-1eb7677f5a6f,9,1767702674025,1.3990501,-7.6990504,-5.31195,0.0045375,-0.02035,-0.009625,0.0873188972473144,0.2718837559223175,-0.3565345382690434,15.4212633,73.9813033,0.0972825,0.4567956255587759,0.0,0.02296414664754604,-0.014922000690930488
bcad4cd6-2134-49d6-ad24-1eb7677f5a6f,9,1767702674036,1.3990501,-7.6990504,-5.31195,0.0045375,-0.02035,-0.009625,0.0873188972473144,0.2718837559223175,-0.3565345382690434,15.4212633,73.9813033,0.0972825,0.4567956255587759,0.0,0.02296414664754604,-0.016124213456955118
bcad4cd6-2134-49d6-ad24-1eb7677f5a6f,9,1767702674047,1.7820001,-7.6990504,-5.484,0.0171875,-0.054449998,0.0441375,-0.0349955558776855,-0.0936979949474334,-0.19152027130127,15.4212633,73.9813033,0.0972825,0.2160648456081404,0.0,0.07216876987104605,0.032493319424938674
bcad4cd6-2134-49d6-ad24-1eb7677f5a6f,9,1767702674058,1.7820001,-7.6990504,-5.484,0.0171875,-0.054449998,0.0441375,-0.0349955558776855,-0.0936979949474334,-0.19152027130127,15.4212633,73.9813033,0.0972825,0.2160648456081404,0.0,0.07216876987104605,0.03270569588311846
bcad4cd6-2134-49d6-ad24-1eb7677f5a6f,9,1767702674068,1.8769501,-7.5270004,-5.427,0.0116875,-0.0385,0.0323125,-0.0814771652221679,-0.2362357079982757,-0.3459325408935552,15.4212633,73.9813033,0.0972825,0.4267495296249994,0.0,0.05160373351318682,0.013198308764722583
bcad4cd6-2134-49d6-ad24-1eb7677f5a6f,9,1767702674079,1.8769501,-7.5270004,-5.427,0.0116875,-0.0385,0.0323125,-0.0814771652221679,-0.2362357079982757,-0.3459325408935552,15.4212633,73.9813033,0.0972825,0.4267495296249994,0.0,0.05160373351318682,0.014998549976550174
bcad4cd6-2134-49d6-ad24-1eb7677f5a6f,9,1767702674090,1.3990501,-7.4890504,-5.3500504,0.0089375,-0.02365,0.0202125,-0.0651884078979492,0.2107599377632141,-0.5031419372558599,15.4212633,73.9813033,0.0972825,0.5493824614199136,0.0,0.03236891352053695,-0.0019301061315232342
bcad4cd6-2134-49d6-ad24-1eb7677f5a6f,9,1767702674100,1.3990501,-7.4890504,-5.3500504,0.0089375,-0.02365,0.0202125,-0.0651884078979492,0.2107599377632141,-0.5031419372558599,15.4212633,73.9813033,0.0972825,0.5493824614199136,0.0,0.03236891352053695,0.0005488569931899504
bcad4cd6-2134-49d6-ad24-1eb7677f5a6f,9,1767702674111,1.743,-7.7380505,-5.44605,-0.00825,-0.0045375,0.0111375,0.0129213333129882,-0.0885762274265289,-0.1888290023803716,15.4212633,73.9813033,0.0972825,0.2089715316967071,0.0,0.014584077361972543,-0.014959068760764848
bcad4cd6-2134-49d6-ad24-1eb7677f5a6f,9,1767702674122,1.743,-7.7380505,-5.44605,-0.00825,-0.0045375,0.0111375,0.0129213333129882,-0.0885762274265289,-0.1888290023803716,15.4212633,73.9813033,0.0972825,0.2089715316967071,0.0,0.014584077361972543,-0.013238053380190533
bcad4cd6-2134-49d6-ad24-1eb7677f5a6f,9,1767702674132,1.743,-7.7380505,-5.44605,-0.00825,-0.0045375,0.0111375,0.0129213333129882,-0.0885762274265289,-0.1888290023803716,15.4212633,73.9813033,0.0972825,0.2089715316967071,0.0,0.014584077361972543,-0.012345750457583108
bcad4cd6-2134-49d6-ad24-1eb7677f5a6f,9,1767702674143,1.3990501,-7.5079503,-5.2930503,-0.014575,0.0105875,0.0034375,-0.0086016654968261,0.2004300355911255,-0.5200696563720708,15.4212633,73.9813033,0.0972825,0.5574214162510649,0.0,0.018339634333868274,-0.008671387804534834
bcad4cd6-2134-49d6-ad24-1eb7677f5a6f,9,1767702674154,1.3990501,-7.5079503,-5.2930503,-0.014575,0.0105875,0.0034375,-0.0086016654968261,0.2004300355911255,-0.5200696563720708,15.4212633,73.9813033,0.0972825,0.5574214162510649,0.0,0.018339634333868274,-0.00971684133040705
bcad4cd6-2134-49d6-ad24-1eb7677f5a6f,9,1767702674165,1.59,-7.4119506,-5.3689504,-0.011275,0.0081124995,0.02145,-0.1105313301086425,0.0040389895439147,-0.5213761901855474,15.4212633,73.9813033,0.0972825,0.5329790052755528,0.0,0.025554662453992624,-0.004347702916717512
bcad4cd6-2134-49d6-ad24-1eb7677f5a6f,9,1767702674176,1.59,-7.4119506,-5.3689504,-0.011275,0.0081124995,0.02145,-0.1105313301086425,0.0040389895439147,-0.5213761901855474,15.4212633,73.9813033,0.0972825,0.5329790052755528,0.0,0.025554662453992624,-0.00670063883792199
bcad4cd6-2134-49d6-ad24-1eb7677f5a6f,9,1767702674187,1.3410001,-7.66095,-5.2540503,-0.013612499,0.004675,0.029975,0.1136088371276855,0.2787888646125793,-0.4290156936645513,15.4212633,73.9813033,0.0972825,0.5241036770677651,0.0,0.03325141168469395,-0.0014874454504099014
bcad4cd6-2134-49d6-ad24-1eb7677f5a6f,9,1767702674197,1.3410001,-7.66095,-5.2540503,-0.013612499,0.004675,0.029975,0.1136088371276855,0.2787888646125793,-0.4290156936645513,15.4212633,73.9813033,0.0972825,0.5241036770677651,0.0,0.03325141168469395,-0.0037025853188919966
bcad4cd6-2134-49d6-ad24-1eb7677f5a6f,9,1767702674208,1.8010501,-7.6990504,-5.44605,-0.0086624995,-0.0226875,0.0595375,0.0025629997253417,-0.1587322354316711,-0.2103419876098637,15.4212633,73.9813033,0.0972825,0.263526551384098,0.0,0.0642998869368174,0.02575645377121697
bcad4cd6-2134-49d6-ad24-1eb7677f5a6f,9,1767702674219,1.8010501,-7.6990504,-5.44605,-0.0086624995,-0.0226875,0.0595375,0.0025629997253417,-0.1587322354316711,-0.2103419876098637,15.4212633,73.9813033,0.0972825,0.263526551384098,0.0,0.0642998869368174,0.02505068044791865
bcad4cd6-2134-49d6-ad24-1eb7677f5a6f,9,1767702674230,1.8010501,-7.6990504,-5.44605,-0.0086624995,-0.0226875,0.0595375,0.0025629997253417,-0.1587322354316711,-0.2103419876098637,15.4212633,73.9813033,0.0972825,0.263526551384098,0.0,0.0642998869368174,0.025346013040198845
bcad4cd6-2134-49d6-ad24-1eb7677f5a6f,9,1767702674241,1.8580501,-7.5649505,-5.44605,-0.0048125,-0.0125124995,0.0328625,-0.0669941902160644,-0.25173419713974,-0.3088183975219731,15.4212633,73.9813033,0.0972825,0.4040137747408312,0.0,0.035491783644070365,-0.002206777993078204
bcad4cd6-2134-49d6-ad24-1eb7677f5a6f,9,1767702674252,1.8580501,-7.5649505,-5.44605,-0.0048125,-0.0125124995,0.0328625,-0.0669941902160644,-0.25173419713974,-0.3088183975219731,15.4212633,73.9813033,0.0972825,0.4040137747408312,0.0,0.035491783644070365,-0.00018355736578781607
bcad4cd6-2134-49d6-ad24-1eb7677f5a6f,9,1767702674262,1.3990501,-7.5840006,-5.3689504,-0.00495,-0.0075625,0.0226875,-0.0131349563598632,0.1907703876495361,-0.4151349639892583,15.4212633,73.9813033,0.0972825,0.4570589745414617,0.0,0.024421641273673644,-0.008774409922942804
bcad4cd6-2134-49d6-ad24-1eb7677f5a6f,9,1767702674273,1.3990501,-7.5840006,-5.3689504,-0.00495,-0.0075625,0.0226875,-0.0131349563598632,0.1907703876495361,-0.4151349639892583,15.4212633,73.9813033,0.0972825,0.4570589745414617,0.0,0.024421641273673644,-0.006222163768653878
bcad4cd6-2134-49d6-ad24-1eb7677f5a6f,9,1767702674284,1.7050501,-7.7179503,-5.484,-0.0023375,0.003025,0.003025,-0.0160155296325683,-0.0883954465389251,-0.1902204132080083,15.4212633,73.9813033,0.0972825,0.2103664844010401,0.0,0.004874951922839855,-0.023541149287389804
bcad4cd6-2134-49d6-ad24-1eb7677f5a6f,9,1767702674295,1.7050501,-7.7179503,-5.484,-0.0023375,0.003025,0.003025,-0.0160155296325683,-0.0883954465389251,-0.1902204132080083,15.4212633,73.9813033,0.0972825,0.2103664844010401,0.0,0.004874951922839855,-0.021994314664384063
bcad4cd6-2134-49d6-ad24-1eb7677f5a6f,9,1767702674306,1.3410001,-7.431,-5.3880005,-0.014162499,0.0221375,-0.0089375,-0.1180949211120605,0.2196061909198761,-0.5371127700805669,15.4212633,73.9813033,0.0972825,0.5921684027930069,0.0,0.02775831749989543,0.0014854542969933622
bcad4cd6-2134-49d6-ad24-1eb7677f5a6f,9,1767702674317,1.3410001,-7.431,-5.3880005,-0.014162499,0.0221375,-0.0089375,-0.1180949211120605,0.2196061909198761,-0.5371127700805669,15.4212633,73.9813033,0.0972825,0.5921684027930069,0.0,0.02775831749989543,0.0009782074316752743
bcad4cd6-2134-49d6-ad24-1eb7677f5a6f,9,1767702674328,1.7050501,-7.4689503,-5.427,-0.0180125,0.0257125,0.0174625,-0.1071085929870605,-0.1225648522377014,-0.4228673553466802,15.4212633,73.9813033,0.0972825,0.4531127827744576,0.0,0.035923832183524074,0.007506853863462681
bcad4cd6-2134-49d6-ad24-1eb7677f5a6f,9,1767702674339,1.7050501,-7.4689503,-5.427,-0.0180125,0.0257125,0.0174625,-0.1071085929870605,-0.1225648522377014,-0.4228673553466802,15.4212633,73.9813033,0.0972825,0.4531127827744576,0.0,0.035923832183524074,0.004834609456138303
bcad4cd6-2134-49d6-ad24-1eb7677f5a6f,9,1767702674349,1.7050501,-7.4689503,-5.427,-0.0180125,0.0257125,0.0174625,-0.1071085929870605,-0.1225648522377014,-0.4228673553466802,15.4212633,73.9813033,0.0972825,0.4531127827744576,0.0,0.035923832183524074,0.001319928125496888
bcad4cd6-2134-49d6-ad24-1eb7677f5a6f,9,1767702674360,1.3600501,-7.6800003,-5.2930503,-0.0229625,0.034925,0.0243375,0.1079211235046386,0.2417580187320709,-0.3877692794799809,15.4212633,73.9813033,0.0972825,0.4695305342873703,0.0,0.04836678547825977,0.009666461820279335
bcad4cd6-2134-49d6-ad24-1eb7677f5a6f,9,1767702674371,1.3600501,-7.6800003,-5.2930503,-0.0229625,0.034925,0.0243375,0.1079211235046386,0.2417580187320709,-0.3877692794799809,15.4212633,73.9813033,0.0972825,0.4695305342873703,0.0,0.04836678547825977,0.005281994622539584
bcad4cd6-2134-49d6-ad24-1eb7677f5a6f,9,1767702674382,1.3600501,-7.6800003,-5.2930503,-0.0229625,0.034925,0.0243375,0.1079211235046386,0.2417580187320709,-0.3877692794799809,15.4212633,73.9813033,0.0972825,0.4695305342873703,0.0,0.04836678547825977,0.0009026826965699294
bcad4cd6-2134-49d6-ad24-1eb7677f5a6f,9,1767702674393,1.9729501,-7.7380505,-5.4079504,-0.021175,0.03575,0.0341,0.0766186714172363,-0.3414306640625,-0.1718745803833012,15.4212633,73.9813033,0.0972825,0.3898540631490687,0.0,0.053751773226564346,0.0021780204716891653
bcad4cd6-2134-49d6-ad24-1eb7677f5a6f,9,1767702674404,1.72395,-7.6039505,-5.3500504,-0.0174625,0.0402875,0.029975,0.0395302772521972,-0.123291015625,-0.3549314117431645,15.4212633,73.9813033,0.0972825,0.3778089787120938,0.0,0.05316504667072154,-0.0020333311991945894
bcad4cd6-2134-49d6-ad24-1eb7677f5a6f,9,1767702674415,1.72395,-7.6039505,-5.3500504,-0.0174625,0.0402875,0.029975,0.0395302772521972,-0.123291015625,-0.3549314117431645,15.4212633,73.9813033,0.0972825,0.3778089787120938,0.0,0.05316504667072154,-0.005018447409959769
bcad4cd6-2134-49d6-ad24-1eb7677f5a6f,9,1767702674425,1.41795,-7.5079503,-5.3310003,-0.0132,0.0572,0.0033,-0.0093278884887695,0.1623730361461639,-0.4947972869873052,15.4212633,73.9813033,0.0972825,0.520841979472642,0.0,0.058796003265528175,-0.00164288172440546
