session_id,window_id,timestamp,accel_x,accel_y,accel_z,gyro_x,gyro_y,gyro_z,linear_accel_x,linear_accel_y,linear_accel_z,latitude,longitude,speed,vibration_intensity,anomaly_score,raw_magnitude,vibration_only
e01e8f19-0dd6-4004-bd72-10dd5a288f84,4,1767701494622,2.2410002,-7.8520503,-5.1589503,0.0352,0.077275,-0.1291125,0.3787660598754883,-0.2678925395011902,-0.1623921966552739,15.4211917,73.98129,0.20588888,0.4915296190144841,0.0,0.15453317857744983,0.005198682599135908
e01e8f19-0dd6-4004-bd72-10dd5a288f84,4,1767701494633,2.26005,-7.7760005,-5.2930503,0.039875,0.0594,-0.104637496,0.2053966522216797,-0.2685163021087646,-0.1416955566406255,15.4211917,73.98129,0.20588888,0.3665602542744313,0.0,0.1267571741328672,-0.0038092162222818074
e01e8f19-0dd6-4004-bd72-10dd5a288f84,4,1767701494643,2.26005,-7.7760005,-5.2930503,0.039875,0.0594,-0.104637496,0.2053966522216797,-0.2685163021087646,-0.1416955566406255,15.4211917,73.98129,0.20588888,0.3665602542744313,0.0,0.1267571741328672,0.014445835681287284
e01e8f19-0dd6-4004-bd72-10dd5a288f84,4,1767701494654,2.2030501,-7.7380505,-5.19705,0.019524999,0.0430375,-0.0759,0.2342681884765625,-0.1900581419467926,-0.2366414642333989,15.4211917,73.98129,0.20588888,0.3834095252427675,0.0,0.08941063690747315,-0.0058532398013531545
e01e8f19-0dd6-4004-bd72-10dd5a288f84,4,1767701494664,2.2030501,-7.7380505,-5.19705,0.019524999,0.0430375,-0.0759,0.2342681884765625,-0.1900581419467926,-0.2366414642333989,15.4211917,73.98129,0.20588888,0.3834095252427675,0.0,0.08941063690747315,0.009409321198035694
e01e8f19-0dd6-4004-bd72-10dd5a288f84,4,1767701494675,2.184,-7.7569504,-5.1780005,0.0180125,0.034649998,-0.070125,0.2473030090332031,-0.1462924182415008,-0.2355933761596684,15.4211917,73.98129,0.20588888,0.3715703012918737,0.0,0.08026573454874755,0.013294626886148226
e01e8f19-0dd6-4004-bd72-10dd5a288f84,4,1767701494685,2.184,-7.7380505,-5.06295,0.0006875,0.0163625,-0.047849998,0.3211994171142578,-0.1401145458221435,-0.3148446655273442,15.4211917,73.98129,0.20588888,0.4710926818753501,0.0,0.050574957944619234,-0.005910080287199983
e01e8f19-0dd6-4004-bd72-10dd5a288f84,4,1767701494696,2.184,-7.7380505,-5.06295,0.0006875,0.0163625,-0.047849998,0.3211994171142578,-0.1401145458221435,-0.3148446655273442,15.4211917,73.98129,0.20588888,0.4710926818753501,0.0,0.050574957944619234,0.0018556710801602035
e01e8f19-0dd6-4004-bd72-10dd5a288f84,4,1767701494707,2.184,-7.7380505,-5.06295,0.0006875,0.0163625,-0.047849998,0.3211994171142578,-0.1401145458221435,-0.3148446655273442,15.4211917,73.98129,0.20588888,0.4710926818753501,0.0,0.050574957944619234,0.006854868853415512
e01e8f19-0dd6-4004-bd72-10dd5a288f84,4,1767701494717,2.184,-7.7380505,-4.9669504,-0.02035,-0.0023375,-0.0075625,0.3901057243347168,-0.1244967505335807,-0.3680615997314458,15.4211917,73.98129,0.20588888,0.5505917346355699,0.0,0.021835242441978975,-0.019579998490175755
e01e8f19-0dd6-4004-bd72-10dd5a288f84,4,1767701494728,2.184,-7.7380505,-4.9669504,-0.02035,-0.0023375,-0.0075625,0.3901057243347168,-0.1244967505335807,-0.3680615997314458,15.4211917,73.98129,0.20588888,0.5505917346355699,0.0,0.021835242441978975,-0.01979649177287125
e01e8f19-0dd6-4004-bd72-10dd5a288f84,4,1767701494739,2.2030501,-7.7569504,-4.8520503,-0.01155,-0.0264,0.0290125,0.4918193817138672,-0.1303936839103698,-0.412807998657227,15.4211917,73.98129,0.20588888,0.6552093259321888,0.0,0.04089116843830706,-0.0032280782184834333
e01e8f19-0dd6-4004-bd72-10dd5a288f84,4,1767701494750,2.2030501,-7.7569504,-4.8520503,-0.01155,-0.0264,0.0290125,0.4918193817138672,-0.1303936839103698,-0.412807998657227,15.4211917,73.98129,0.20588888,0.6552093259321888,0.0,0.04089116843830706,-0.0076869043700616285
e01e8f19-0dd6-4004-bd72-10dd5a288f84,4,1767701494763,2.31795,-7.7380505,-4.87095,-0.0067375,-0.0419375,0.0605,0.4765505790710449,-0.2500086426734924,-0.3926301574707036,15.4211917,73.98129,0.20588888,0.6661555496878035,0.0,0.07392156527360605,0.01923290062697454
e01e8f19-0dd6-4004-bd72-10dd5a288f84,4,1767701494774,2.31795,-7.7380505,-4.87095,-0.0067375,-0.0419375,0.0605,0.4765505790710449,-0.2500086426734924,-0.3926301574707036,15.4211917,73.98129,0.20588888,0.6661555496878035,0.0,0.07392156527360605,0.01178279581910945
e01e8f19-0dd6-4004-bd72-10dd5a288f84,4,1767701494784,2.3749502,-7.6800003,-4.9290004,0.0264,-0.0510125,0.0675125,0.4013080596923828,-0.332271546125412,-0.3947778320312505,15.4211917,73.98129,0.20588888,0.653683467591105,0.0,0.08864069501363356,0.017996923381329306
e01e8f19-0dd6-4004-bd72-10dd5a288f84,4,1767701494795,2.3749502,-7.6800003,-4.9290004,0.0264,-0.0510125,0.0675125,0.4013080596923828,-0.332271546125412,-0.3947778320312505,15.4211917,73.98129,0.20588888,0.653683467591105,0.0,0.08864069501363356,0.008684074269916981
e01e8f19-0dd6-4004-bd72-10dd5a288f84,4,1767701494810,2.1460502,-7.8910503,-4.9669504,0.051975,-0.052249998,0.0595375,0.4293975830078125,-0.0709534659981727,-0.2519965744018559,15.4211917,73.98129,0.20588888,0.5029104812393307,0.0,0.09474268743417617,0.004877062333980447
e01e8f19-0dd6-4004-bd72-10dd5a288f84,4,1767701494820,2.1460502,-7.8910503,-4.9669504,0.051975,-0.052249998,0.0595375,0.4293975830078125,-0.0709534659981727,-0.2519965744018559,15.4211917,73.98129,0.20588888,0.5029104812393307,0.0,0.09474268743417617,-0.005438285074059482
e01e8f19-0dd6-4004-bd72-10dd5a288f84,4,1767701494832,1.8010501,-7.9480505,-4.8520503,0.0548625,-0.0523875,0.0638,0.4749407768249511,0.2569078505039215,-0.3407788848876958,15.4211917,73.98129,0.20588888,0.638514395708456,0.0,0.09912004874141254,-0.011593376085917277
e01e8f19-0dd6-4004-bd72-10dd5a288f84,4,1767701494842,1.8010501,-7.9480505,-4.8520503,0.0548625,-0.0523875,0.0638,0.4749407768249511,0.2569078505039215,-0.3407788848876958,15.4211917,73.98129,0.20588888,0.638514395708456,0.0,0.09912004874141254,-0.022130473546264635
e01e8f19-0dd6-4004-bd72-10dd5a288f84,4,1767701494853,1.7050501,-7.8139505,-4.87095,0.062425,-0.067925,0.09295,0.3535718917846679,0.2883692383766174,-0.4567647552490239,15.4211917,73.98129,0.20588888,0.6456035485805511,0.0,0.13095949278307398,-0.0005768369212975202
e01e8f19-0dd6-4004-bd72-10dd5a288f84,4,1767701494864,1.7050501,-7.8139505,-4.87095,0.062425,-0.067925,0.09295,0.3535718917846679,0.2883692383766174,-0.4567647552490239,15.4211917,73.98129,0.20588888,0.6456035485805511,0.0,0.13095949278307398,-0.010300615025359124
e01e8f19-0dd6-4004-bd72-10dd5a288f84,4,1767701494874,1.8199501,-7.7760005,-5.1199503,0.0759,-0.087725,0.11,0.1323275566101074,0.1296355128288269,-0.3253799057006841,15.4211917,73.98129,0.20588888,0.3744169219714571,0.0,0.15986395974390225,0.00980643326550511
e01e8f19-0dd6-4004-bd72-10dd5a288f84,4,1767701494886,1.8199501,-7.7760005,-5.1199503,0.0759,-0.087725,0.11,0.1323275566101074,0.1296355128288269,-0.3253799057006841,15.4211917,73.98129,0.20588888,0.3744169219714571,0.0,0.15986395974390225,0.0023382981387867
e01e8f19-0dd6-4004-bd72-10dd5a288f84,4,1767701494897,1.8199501,-7.7760005,-5.1199503,0.0759,-0.087725,0.11,0.1323275566101074,0.1296355128288269,-0.3253799057006841,15.4211917,73.98129,0.20588888,0.3744169219714571,0.0,0.15986395974390225,-0.0033866632281962378
e01e8f19-0dd6-4004-bd72-10dd5a288f84,5,1767701494909,1.9729501,-7.9669504,-5.2540503,0.0807125,-0.089925,0.1249875,0.1298847198486328,-0.0080205202102661,-0.0656200027465825,15.4211917,73.981295,0.0,0.1457407079544442,0.0,0.1738473135757352,0.007002602215506722
e01e8f19-0dd6-4004-bd72-10dd5a288f84,5,1767701494920,1.9729501,-7.9669504,-5.2540503,0.0807125,-0.089925,0.1249875,0.1298847198486328,-0.0080205202102661,-0.0656200027465825,15.4211917,73.981295,0.0,0.1457407079544442,0.0,0.1738473135757352,0.005858579651197131
e01e8f19-0dd6-4004-bd72-10dd5a288f84,5,1767701494930,2.1070502,-8.04405,-5.19705,0.07425,-0.0782375,0.124437496,0.2144546508789062,-0.1484510600566864,-0.0075660324096684,15.4211917,73.981295,0.0,0.2609324804656783,0.0,0.16467804746534984,-0.0017964971923980031
e01e8f19-0dd6-4004-bd72-10dd5a288f84,5,1767701494940,2.1070502,-8.04405,-5.19705,0.07425,-0.0782375,0.124437496,0.2144546508789062,-0.1484510600566864,-0.0075660324096684,15.4211917,73.981295,0.0,0.2609324804656783,0.0,0.16467804746534984,0.002435123698658609
e01e8f19-0dd6-4004-bd72-10dd5a288f84,5,1767701494951,2.2800002,-7.9099503,-4.9290004,0.064899996,-0.05555,0.121,0.3739886283874511,-0.3673353493213653,-0.2295003509521489,15.4211917,73.981295,0.0,0.5722527100078567,0.0,0.14811756135178575,-0.007294849462674119
e01e8f19-0dd6-4004-bd72-10dd5a288f84,5,1767701494962,2.2800002,-7.9099503,-4.9290004,0.064899996,-0.05555,0.121,0.3739886283874511,-0.3673353493213653,-0.2295003509521489,15.4211917,73.981295,0.0,0.5722527100078567,0.0,0.14811756135178575,0.001822073702389334
e01e8f19-0dd6-4004-bd72-10dd5a288f84,5,1767701494972,2.433,-7.8520503,-4.776,0.0528,-0.0023375,0.1153625,0.4744844436645508,-0.5463790893554688,-0.3305097198486333,15.4211917,73.981295,0.0,0.7955515517419293,0.0,0.12689290883457593,-0.00850651095068848
e01e8f19-0dd6-4004-bd72-10dd5a288f84,5,1767701494983,2.433,-7.8520503,-4.776,0.0528,-0.0023375,0.1153625,0.4744844436645508,-0.5463790893554688,-0.3305097198486333,15.4211917,73.981295,0.0,0.7955515517419293,0.0,0.12689290883457593,0.003482872247886943
e01e8f19-0dd6-4004-bd72-10dd5a288f84,5,1767701494994,2.4520502,-7.7179503,-4.9290004,0.0452375,0.01485,0.1027125,0.2595882415771484,-0.6161465644836426,-0.3533979034423833,15.4211917,73.981295,0.0,0.7562491138821807,0.0,0.11321135792180924,0.0020535687398873493
e01e8f19-0dd6-4004-bd72-10dd5a288f84,5,1767701495004,2.4520502,-7.7179503,-4.9290004,0.0452375,0.01485,0.1027125,0.2595882415771484,-0.6161465644836426,-0.3533979034423833,15.4211917,73.981295,0.0,0.7562491138821807,0.0,0.11321135792180924,0.013644681562794272
e01e8f19-0dd6-4004-bd72-10dd5a288f84,5,1767701495015,2.4520502,-7.7179503,-4.9290004,0.0452375,0.01485,0.1027125,0.2595882415771484,-0.6161465644836426,-0.3533979034423833,15.4211917,73.981295,0.0,0.7562491138821807,0.0,0.11321135792180924,0.023623163135374815
e01e8f19-0dd6-4004-bd72-10dd5a288f84,5,1767701495025,2.5480502,-7.4890504,-5.1589503,0.03575,0.02805,0.0732875,-0.0472559928894043,-0.7815780639648438,-0.3982987976074224,15.4211917,73.981295,0.0,0.8784869555722016,0.0,0.08623179608618853,0.004107400255752078
e01e8f19-0dd6-4004-bd72-10dd5a288f84,5,1767701495036,2.5480502,-7.4890504,-5.1589503,0.03575,0.02805,0.0732875,-0.0472559928894043,-0.7815780639648438,-0.3982987976074224,15.4211917,73.981295,0.0,0.8784869555722016,0.0,0.08623179608618853,0.008285518505259354
e01e8f19-0dd6-4004-bd72-10dd5a288f84,5,1767701495046,2.5480502,-7.6420503,-5.235,0.0182875,0.0455125,0.032175,-0.0394172668457031,-0.740891695022583,-0.2314687347412114,15.4211917,73.981295,0.0,0.7772078228129969,0.0,0.0586604716781241,-0.018955240888965972
e01e8f19-0dd6-4004-bd72-10dd5a288f84,5,1767701495057,2.5480502,-7.6420503,-5.235,0.0182875,0.0455125,0.032175,-0.0394172668457031,-0.740891695022583,-0.2314687347412114,15.4211917,73.981295,0.0,0.7772078228129969,0.0,0.0586604716781241,-0.022759829266882126
e01e8f19-0dd6-4004-bd72-10dd5a288f84,5,1767701495068,2.5480502,-7.6420503,-5.235,0.0182875,0.0455125,0.032175,-0.0394172668457031,-0.740891695022583,-0.2314687347412114,15.4211917,73.981295,0.0,0.7772078228129969,0.0,0.0586604716781241,-0.03066984331844256
e01e8f19-0dd6-4004-bd72-10dd5a288f84,5,1767701495078,2.4709501,-7.833,-5.2540503,-0.009075,0.0675125,0.0116875,0.0231270790100097,-0.5988161563873291,-0.0782247161865239,15.4211917,73.981295,0.0,0.6043465538550639,0.0,0.0691150557946675,-0.031869834224973456
e01e8f19-0dd6-4004-bd72-10dd5a288f84,5,1767701495089,2.433,-7.7569504,-5.1390004,-0.082225,0.121,-0.0174625,0.0700135231018066,-0.553516149520874,-0.2085500335693364,15.4211917,73.981295,0.0,0.5956300342488726,0.0,0.1473325813635599,0.03162163746015761
e01e8f19-0dd6-4004-bd72-10dd5a288f84,5,1767701495100,2.433,-7.7569504,-5.1390004,-0.082225,0.121,-0.0174625,0.0700135231018066,-0.553516149520874,-0.2085500335693364,15.4211917,73.981295,0.0,0.5956300342488726,0.0,0.1473325813635599,0.014758912635333715
e01e8f19-0dd6-4004-bd72-10dd5a288f84,5,1767701495110,2.433,-7.7569504,-5.1390004,-0.082225,0.121,-0.0174625,0.0700135231018066,-0.553516149520874,-0.2085500335693364,15.4211917,73.981295,0.0,0.5956300342488726,0.0,0.1473325813635599,-0.0031203350102926393
e01e8f19-0dd6-4004-bd72-10dd5a288f84,5,1767701495122,2.4520502,-7.6039505,-5.00505,-0.10505,0.1472625,-0.0446875,0.1140370368957519,-0.5763618350028992,-0.400539932250977,15.4211917,73.981295,0.0,0.711076400929949,0.0,0.18632959792394765,0.01819314282882842
e01e8f19-0dd6-4004-bd72-10dd5a288f84,5,1767701495132,2.4520502,-7.6039505,-5.00505,-0.10505,0.1472625,-0.0446875,0.1140370368957519,-0.5763618350028992,-0.400539932250977,15.4211917,73.981295,0.0,0.711076400929949,0.0,0.18632959792394765,0.0019100855176224305
e01e8f19-0dd6-4004-bd72-10dd5a288f84,5,1767701495142,2.4709501,-7.6800003,-4.94805,-0.087725,0.1573,-0.104499996,0.2132024765014648,-0.5343931913375854,-0.3632979965209966,15.4211917,73.981295,0.0,0.6804533879778224,0.0,0.20822875591281817,0.010028512142323831
e01e8f19-0dd6-4004-bd72-10dd5a288f84,5,1767701495153,2.4709501,-7.6800003,-4.94805,-0.087725,0.1573,-0.104499996,0.2132024765014648,-0.5343931913375854,-0.3632979965209966,15.4211917,73.981295,0.0,0.6804533879778224,0.0,0.20822875591281817,-0.00033359803302891603
e01e8f19-0dd6-4004-bd72-10dd5a288f84,5,1767701495163,2.529,-7.8520503,-5.00505,-0.075075,0.148775,-0.13035,0.2634878158569336,-0.4936495125293731,-0.1773467636108403,15.4211917,73.981295,0.0,0.5869987605513187,0.0,0.2115688510863544,-0.0032696333424969285
e01e8f19-0dd6-4004-bd72-10dd5a288f84,5,1767701495174,2.529,-7.8520503,-5.00505,-0.075075,0.148775,-0.13035,0.2634878158569336,-0.4936495125293731,-0.1773467636108403,15.4211917,73.981295,0.0,0.5869987605513187,0.0,0.2115688510863544,-0.005081783907456214
e01e8f19-0dd6-4004-bd72-10dd5a288f84,5,1767701495184,2.529,-7.8520503,-5.00505,-0.075075,0.148775,-0.13035,0.2634878158569336,-0.4936495125293731,-0.1773467636108403,15.4211917,73.981295,0.0,0.5869987605513187,0.0,0.2115688510863544,-0.002357528605738919
e01e8f19-0dd6-4004-bd72-10dd5a288f84,5,1767701495195,2.4520502,-7.872,-5.0820003,-0.059675,0.1236125,-0.1496,0.1946258544921875,-0.3587371110916137,-0.133165893554688,15.4211917,73.981295,0.0,0.4293072248604599,0.0,0.2030303321704666,-0.00386135288670349
e01e8f19-0dd6-4004-bd72-10dd5a288f84,5,1767701495205,2.4520502,-7.872,-5.0820003,-0.059675,0.1236125,-0.1496,0.1946258544921875,-0.3587371110916137,-0.133165893554688,15.4211917,73.981295,0.0,0.4293072248604599,0.0,0.2030303321704666,0.006987694826072993
e01e8f19-0dd6-4004-bd72-10dd5a288f84,5,1767701495216,2.394,-7.833,-5.1010504,-0.0383625,0.0851125,-0.146575,0.1478404998779297,-0.2586206495761871,-0.1653600311279301,15.4211917,73.981295,0.0,0.3407130665031723,0.0,0.17378161492948557,-0.008317778155443864
e01e8f19-0dd6-4004-bd72-10dd5a288f84,5,1767701495226,2.394,-7.833,-5.1010504,-0.0383625,0.0851125,-0.146575,0.1478404998779297,-0.2586206495761871,-0.1653600311279301,15.4211917,73.981295,0.0,0.3407130665031723,0.0,0.17378161492948557,0.00783528907318347
e01e8f19-0dd6-4004-bd72-10dd5a288f84,5,1767701495237,2.2410002,-7.79505,-5.04405,-0.0375375,0.0675125,-0.1227875,0.1494889259338379,-0.0789046436548233,-0.2601943588256841,15.4211917,73.981295,0.0,0.3102804958934028,0.0,0.1450647156228902,-0.0034980791639132604
e01e8f19-0dd6-4004-bd72-10dd5a288f84,5,1767701495247,2.2410002,-7.79505,-5.04405,-0.0375375,0.0675125,-0.1227875,0.1494889259338379,-0.0789046436548233,-0.2601943588256841,15.4211917,73.981295,0.0,0.3102804958934028,0.0,0.1450647156228902,0.01411541826389221
e01e8f19-0dd6-4004-bd72-10dd5a288f84,5,1767701495257,2.0310001,-7.6039505,-5.025,-0.038775,0.053625,-0.0754875,0.0351848602294921,0.1031538993120193,-0.4727740859985356,15.4211917,73.981295,0.0,0.4851742343987301,0.0,0.10038677157001315,-0.01366724649168376
e01e8f19-0dd6-4004-bd72-10dd5a288f84,5,1767701495269,2.0310001,-7.6039505,-5.025,-0.038775,0.053625,-0.0754875,0.0351848602294921,0.1031538993120193,-0.4727740859985356,15.4211917,73.981295,0.0,0.4851742343987301,0.0,0.10038677157001315,0.0016818564322576967
e01e8f19-0dd6-4004-bd72-10dd5a288f84,5,1767701495280,2.0310001,-7.6039505,-5.025,-0.038775,0.053625,-0.0754875,0.0351848602294921,0.1031538993120193,-0.4727740859985356,15.4211917,73.981295,0.0,0.4851742343987301,0.0,0.10038677157001315,0.014834350589282355
e01e8f19-0dd6-4004-bd72-10dd5a288f84,5,1767701495290,2.01195,-7.6420503,-5.1010504,-0.036025,0.044275,-0.0411125,-0.0071454048156738,0.1509467214345932,-0.4053855514526372,15.4211917,73.981295,0.0,0.4326354294881446,0.0,0.07034425283027748,-0.004683213823914648
e01e8f19-0dd6-4004-bd72-10dd5a288f84,5,1767701495301,2.01195,-7.6420503,-5.1010504,-0.036025,0.044275,-0.0411125,-0.0071454048156738,0.1509467214345932,-0.4053855514526372,15.4211917,73.981295,0.0,0.4326354294881446,0.0,0.07034425283027748,0.0030254652490915857
e01e8f19-0dd6-4004-bd72-10dd5a288f84,5,1767701495311,2.12595,-7.7760005,-5.1390004,-0.02145,0.0050875,0.0198,0.05241060256958,0.0901259928941726,-0.250485000610352,15.4211917,73.981295,0.0,0.2713158701359635,0.0,0.029631489268175503,-0.032740753663058064
e01e8f19-0dd6-4004-bd72-10dd5a288f84,5,1767701495322,2.12595,-7.7760005,-5.1390004,-0.02145,0.0050875,0.0198,0.05241060256958,0.0901259928941726,-0.250485000610352,15.4211917,73.981295,0.0,0.2713158701359635,0.0,0.029631489268175503,-0.030281601156762084
e01e8f19-0dd6-4004-bd72-10dd5a288f84,5,1767701495333,2.2800002,-7.79505,-5.1199503,-0.0075625,-0.0372625,0.0614625,0.1040019989013671,-0.0547930635511875,-0.2099328613281255,15.4211917,73.981295,0.0,0.2406044510274455,0.0,0.07227256892313985,0.012782810852764184
e01e8f19-0dd6-4004-bd72-10dd5a288f84,5,1767701495343,2.2800002,-7.79505,-5.1199503,-0.0075625,-0.0372625,0.0614625,0.1040019989013671,-0.0547930635511875,-0.2099328613281255,15.4211917,73.981295,0.0,0.2406044510274455,0.0,0.07227256892313985,0.011737741871886077
e01e8f19-0dd6-4004-bd72-10dd5a288f84,5,1767701495355,2.2800002,-7.7380505,-5.1199503,0.004125,-0.0482625,0.0562375,0.0754566192626953,-0.0811802595853805,-0.2560773468017583,15.4211917,73.981295,0.0,0.2790332300675551,0.0,0.07422224018109397,0.011786025428613229
e01e8f19-0dd6-4004-bd72-10dd5a288f84,5,1767701495366,2.2800002,-7.7380505,-5.1199503,0.004125,-0.0482625,0.0562375,0.0754566192626953,-0.0811802595853805,-0.2560773468017583,15.4211917,73.981295,0.0,0.2790332300675551,0.0,0.07422224018109397,0.00961257141114763
e01e8f19-0dd6-4004-bd72-10dd5a288f84,5,1767701495377,2.2800002,-7.7380505,-5.1199503,0.004125,-0.0482625,0.0562375,0.0754566192626953,-0.0811802595853805,-0.2560773468017583,15.4211917,73.981295,0.0,0.2790332300675551,0.0,0.07422224018109397,0.007658983754192519
e01e8f19-0dd6-4004-bd72-10dd5a288f84,5,1767701495387,2.2800002,-7.7380505,-5.1199503,0.004125,-0.0482625,0.0562375,0.0754566192626953,-0.0811802595853805,-0.2560773468017583,15.4211917,73.981295,0.0,0.2790332300675551,0.0,0.07422224018109397,0.006276516516226148
e01e8f19-0dd6-4004-bd72-10dd5a288f84,5,1767701495398,2.394,-7.7569504,-5.1390004,0.0094875,-0.052249998,0.0540375,0.086827278137207,-0.200607880949974,-0.2046342468261723,15.4211917,73.981295,0.0,0.2994289116001821,0.0,0.07576362157064566,0.0071905131475579545
e01e8f19-0dd6-4004-bd72-10dd5a288f84,5,1767701495408,2.394,-7.6800003,-5.025,0.0116875,-0.047575,0.0490875,0.1415953636169433,-0.2325435131788253,-0.3289571380615239,15.4211917,73.981295,0.0,0.4270111605110497,0.0,0.06935099810024367,0.0009197184819020374
e01e8f19-0dd6-4004-bd72-10dd5a288f84,5,1767701495419,2.394,-7.6800003,-5.025,0.0116875,-0.047575,0.0490875,0.1415953636169433,-0.2325435131788253,-0.3289571380615239,15.4211917,73.981295,0.0,0.4270111605110497,0.0,0.06935099810024367,0.0016954542095179242
e01e8f19-0dd6-4004-bd72-10dd5a288f84,5,1767701495430,2.5480502,-7.6990504,-4.986,0.0006875,-0.03355,0.051975,0.203582763671875,-0.3832186162471771,-0.3000131225585942,15.4211917,73.981295,0.0,0.5275512517377224,0.0,0.06186659665158575,-0.004624997016045119
e01e8f19-0dd6-4004-bd72-10dd5a288f84,5,1767701495440,2.5480502,-7.6990504,-4.986,0.0006875,-0.03355,0.051975,0.203582763671875,-0.3832186162471771,-0.3000131225585942,15.4211917,73.981295,0.0,0.5275512517377224,0.0,0.06186659665158575,-0.0033778407669695734
e01e8f19-0dd6-4004-bd72-10dd5a288f84,5,1767701495451,2.4520502,-7.7380505,-5.1199503,-0.010725,-0.0026125,0.050325,0.0933074951171875,-0.2884388864040375,-0.2177119827270512,15.4211917,73.981295,0.0,0.3732315464399935,0.0,0.05152141696663632,-0.012701835959861811
e01e8f19-0dd6-4004-bd72-10dd5a288f84,5,1767701495461,2.4520502,-7.7380505,-5.1199503,-0.010725,-0.0026125,0.050325,0.0933074951171875,-0.2884388864040375,-0.2177119827270512,15.4211917,73.981295,0.0,0.3732315464399935,0.0,0.05152141696663632,-0.01216876321939867
e01e8f19-0dd6-4004-bd72-10dd5a288f84,5,1767701495472,2.4520502,-7.7380505,-5.1199503,-0.010725,-0.0026125,0.050325,0.0933074951171875,-0.2884388864040375,-0.2177119827270512,15.4211917,73.981295,0.0,0.3732315464399935,0.0,0.05152141696663632,-0.012298519879433248
e01e8f19-0dd6-4004-bd72-10dd5a288f84,5,1767701495482,2.394,-7.7760005,-5.21595,-0.02475,0.0257125,0.0540375,0.0233073234558105,-0.2256944626569748,-0.1481109237670903,15.4211917,73.981295,0.0,0.2709576858844111,0.0,0.06475914269429452,8.414197677297879e-05
e01e8f19-0dd6-4004-bd72-10dd5a288f84,5,1767701495493,2.394,-7.7760005,-5.21595,-0.02475,0.0257125,0.0540375,0.0233073234558105,-0.2256944626569748,-0.1481109237670903,15.4211917,73.981295,0.0,0.2709576858844111,0.0,0.06475914269429452,-0.0014392124752078224
e01e8f19-0dd6-4004-bd72-10dd5a288f84,5,1767701495503,2.31795,-7.79505,-5.1199503,-0.039875,0.0559625,0.047849998,0.103057861328125,-0.146900862455368,-0.2018056488037114,15.4211917,73.981295,0.0,0.2700487105333867,0.0,0.08373433787789812,0.015511367716927365
e01e8f19-0dd6-4004-bd72-10dd5a288f84,5,1767701495513,2.31795,-7.79505,-5.1199503,-0.039875,0.0559625,0.047849998,0.103057861328125,-0.146900862455368,-0.2018056488037114,15.4211917,73.981295,0.0,0.2700487105333867,0.0,0.08373433787789812,0.01323948226081574
e01e8f19-0dd6-4004-bd72-10dd5a288f84,5,1767701495524,2.26005,-7.7380505,-5.04405,-0.0358875,0.061875,0.022824999,0.1297626495361328,-0.1050565838813781,-0.3021188354492192,15.4211917,73.981295,0.0,0.3451825919200658,0.0,0.07508268016393661,0.0023775779342879487
e01e8f19-0dd6-4004-bd72-10dd5a288f84,5,1767701495534,2.26005,-7.7380505,-5.04405,-0.0358875,0.061875,0.022824999,0.1297626495361328,-0.1050565838813781,-0.3021188354492192,15.4211917,73.981295,0.0,0.3451825919200658,0.0,0.07508268016393661,0.0005567061355762444
e01e8f19-0dd6-4004-bd72-10dd5a288f84,5,1767701495545,2.26005,-7.7380505,-5.04405,-0.0358875,0.061875,0.022824999,0.1297626495361328,-0.1050565838813781,-0.3021188354492192,15.4211917,73.981295,0.0,0.3451825919200658,0.0,0.07508268016393661,-0.0005640001461652046
e01e8f19-0dd6-4004-bd72-10dd5a288f84,5,1767701495555,2.184,-7.6990504,-5.00505,-0.0325875,0.065725,0.000275,0.1311984062194824,-0.0371594950556755,-0.3719277954101567,15.4211917,73.981295,0.0,0.396136510392547,0.0,0.07336072795610742,-0.0024448201893807653
e01e8f19-0dd6-4004-bd72-10dd5a288f84,5,1767701495566,2.184,-7.6990504,-5.00505,-0.0325875,0.065725,0.000275,0.1311984062194824,-0.0371594950556755,-0.3719277954101567,15.4211917,73.981295,0.0,0.396136510392547,0.0,0.07336072795610742,-0.0014557785659914495
e01e8f19-0dd6-4004-bd72-10dd5a288f84,5,1767701495576,2.26005,-7.7179503,-5.1589503,-0.0224125,0.061325,-0.0045375,0.0250129699707031,-0.0960816666483879,-0.2559695816040044,15.4211917,73.981295,0.0,0.2745501084305309,0.0,0.06544971113381631,-0.007139043818487496
e01e8f19-0dd6-4004-bd72-10dd5a288f84,5,1767701495586,2.26005,-7.7179503,-5.1589503,-0.0224125,0.061325,-0.0045375,0.0250129699707031,-0.0960816666483879,-0.2559695816040044,15.4211917,73.981295,0.0,0.2745501084305309,0.0,0.06544971113381631,-0.003689361373085944
e01e8f19-0dd6-4004-bd72-10dd5a288f84,5,1767701495597,2.3749502,-7.7380505,-5.1390004,-0.018975,0.055825,-0.00055,0.0685625076293945,-0.1883559077978134,-0.2242322540283208,15.4211917,73.981295,0.0,0.3007638096603223,0.0,0.05896425824175184,-0.005632172194398727
e01e8f19-0dd6-4004-bd72-10dd5a288f84,5,1767701495607,2.3749502,-7.7380505,-5.1390004,-0.018975,0.055825,-0.00055,0.0685625076293945,-0.1883559077978134,-0.2242322540283208,15.4211917,73.981295,0.0,0.3007638096603223,0.0,0.05896425824175184,-0.00023425928066762568
e01e8f19-0dd6-4004-bd72-10dd5a288f84,5,1767701495618,2.29905,-7.6800003,-5.04405,-0.0165,0.0554125,0.001375,0.1038103103637695,-0.1200286671519279,-0.3397670364379888,15.4211917,73.981295,0.0,0.3750001340345681,0.0,0.05783325843535016,0.004553589893047234
e01e8f19-0dd6-4004-bd72-10dd5a288f84,5,1767701495628,2.29905,-7.6800003,-5.04405,-0.0165,0.0554125,0.001375,0.1038103103637695,-0.1200286671519279,-0.3397670364379888,15.4211917,73.981295,0.0,0.3750001340345681,0.0,0.05783325843535016,0.010583511947573903
e01e8f19-0dd6-4004-bd72-10dd5a288f84,5,1767701495639,2.29905,-7.6800003,-5.04405,-0.0165,0.0554125,0.001375,0.1038103103637695,-0.1200286671519279,-0.3397670364379888,15.4211917,73.981295,0.0,0.3750001340345681,0.0,0.05783325843535016,0.01626926005564301
e01e8f19-0dd6-4004-bd72-10dd5a288f84,5,1767701495649,2.2800002,-7.66095,-5.04405,-0.0088,0.0400125,-0.000825,0.088897705078125,-0.0982483401894569,-0.3594194030761724,15.4211917,73.981295,0.0,0.3830637618279398,0.0,0.04097707628967689,0.004292166019099626
e01e8f19-0dd6-4004-bd72-10dd5a288f84,5,1767701495660,2.2800002,-7.66095,-5.04405,-0.0088,0.0400125,-0.000825,0.088897705078125,-0.0982483401894569,-0.3594194030761724,15.4211917,73.981295,0.0,0.3830637618279398,0.0,0.04097707628967689,0.007938509858679853
e01e8f19-0dd6-4004-bd72-10dd5a288f84,5,1767701495670,2.4520502,-7.7569504,-5.1010504,-0.0048125,0.017875,-0.007975,0.1135549545288086,-0.2277039140462875,-0.2111039733886723,15.4211917,73.981295,0.0,0.3306186439850666,0.0,0.020156299418544067,-0.01081337652364679
e01e8f19-0dd6-4004-bd72-10dd5a288f84,5,1767701495681,2.4520502,-7.7569504,-5.1010504,-0.0048125,0.017875,-0.007975,0.1135549545288086,-0.2277039140462875,-0.2111039733886723,15.4211917,73.981295,0.0,0.3306186439850666,0.0,0.020156299418544067,-0.010544491043057252
e01e8f19-0dd6-4004-bd72-10dd5a288f84,5,1767701495691,2.4520502,-7.7569504,-5.1010504,-0.0048125,0.017875,-0.007975,0.1135549545288086,-0.2277039140462875,-0.2111039733886723,15.4211917,73.981295,0.0,0.3306186439850666,0.0,0.020156299418544067,-0.01214548683932653
e01e8f19-0dd6-4004-bd72-10dd5a288f84,5,1767701495702,2.5090501,-7.7569504,-5.1780005,0.002475,-0.01925,-0.0072875,0.0546236038208007,-0.2711049020290375,-0.1559434509277348,15.4211917,73.981295,0.0,0.3174901036029259,0.0,0.020731516617218334,-0.01494353988680296
e01e8f19-0dd6-4004-bd72-10dd5a288f84,5,1767701495712,2.5090501,-7.7569504,-5.1780005,0.002475,-0.01925,-0.0072875,0.0546236038208007,-0.2711049020290375,-0.1559434509277348,15.4211917,73.981295,0.0,0.3174901036029259,0.0,0.020731516617218334,-0.01982846795041801
e01e8f19-0dd6-4004-bd72-10dd5a288f84,5,1767701495722,2.56695,-7.7569504,-5.1589503,0.00715,-0.0495,-0.02475,0.0775060653686523,-0.3180650472640991,-0.1525102233886723,15.4211917,73.981295,0.0,0.361153613713204,0.0,0.05580264330656748,0.009245227521969006
e01e8f19-0dd6-4004-bd72-10dd5a288f84,5,1767701495733,2.56695,-7.7569504,-5.1589503,0.00715,-0.0495,-0.02475,0.0775060653686523,-0.3180650472640991,-0.1525102233886723,15.4211917,73.981295,0.0,0.361153613713204,0.0,0.05580264330656748,0.0026310710378607454
e01e8f19-0dd6-4004-bd72-10dd5a288f84,5,1767701495743,2.4520502,-7.6800003,-5.06295,0.0108624995,-0.065175,-0.0427625,0.0992121696472168,-0.2238499820232391,-0.2932515716552739,15.4211917,73.981295,0.0,0.38203187476466,0.0,0.07870454832242861,0.018840670173857942
e01e8f19-0dd6-4004-bd72-10dd5a288f84,5,1767701495754,2.4520502,-7.6800003,-5.06295,0.0108624995,-0.065175,-0.0427625,0.0992121696472168,-0.2238499820232391,-0.2932515716552739,15.4211917,73.981295,0.0,0.38203187476466,0.0,0.07870454832242861,0.012593383077522167
e01e8f19-0dd6-4004-bd72-10dd5a288f84,5,1767701495765,2.4520502,-7.6800003,-5.025,0.013062499,-0.055825,-0.051425,0.1302428245544433,-0.2184845358133316,-0.3136382675170903,15.4211917,73.981295,0.0,0.4038163550286298,0.0,0.07701681719030591,0.005556663358913078
e01e8f19-0dd6-4004-bd72-10dd5a288f84,5,1767701495775,2.4520502,-7.6800003,-5.025,0.013062499,-0.055825,-0.051425,0.1302428245544433,-0.2184845358133316,-0.3136382675170903,15.4211917,73.981295,0.0,0.4038163550286298,0.0,0.07701681719030591,0.0014458129953689727
e01e8f19-0dd6-4004-bd72-10dd5a288f84,5,1767701495786,2.4139502,-7.6990504,-5.1199503,0.012925,-0.037125,-0.0653125,0.0527567863464355,-0.1709663271903991,-0.2557130432128911,15.4211917,73.981295,0.0,0.312092813130607,0.0,0.07623020337274458,-0.002014580183653437
e01e8f19-0dd6-4004-bd72-10dd5a288f84,5,1767701495796,2.4139502,-7.6990504,-5.1199503,0.012925,-0.037125,-0.0653125,0.0527567863464355,-0.1709663271903991,-0.2557130432128911,15.4211917,73.981295,0.0,0.312092813130607,0.0,0.07623020337274458,-0.003202130446554944
e01e8f19-0dd6-4004-bd72-10dd5a288f84,5,1767701495807,2.4139502,-7.6990504,-5.1199503,0.012925,-0.037125,-0.0653125,0.0527567863464355,-0.1709663271903991,-0.2557130432128911,15.4211917,73.981295,0.0,0.312092813130607,0.0,0.07623020337274458,-0.0029944896540815033
e01e8f19-0dd6-4004-bd72-10dd5a288f84,5,1767701495818,2.3749502,-7.7760005,-5.21595,0.0077,-0.0176,-0.0782375,0.0045809745788574,-0.1009179353713989,-0.1506782150268559,15.4211917,73.981295,0.0,0.181409314786748,0.0,0.08056150697603665,0.0027339972164677146
e01e8f19-0dd6-4004-bd72-10dd5a288f84,6,1767701495828,2.3749502,-7.7760005,-5.21595,0.0077,-0.0176,-0.0782375,0.0045809745788574,-0.1009179353713989,-0.1506782150268559,15.4211917,73.9812967,0.2990536,0.181409314786748,0.0,0.08056150697603665,0.005037904433297012
e01e8f19-0dd6-4004-bd72-10dd5a288f84,6,1767701495839,2.31795,-7.7179503,-5.19705,0.0023375,-0.009625,-0.0727375,-0.0191435813903808,-0.0488750413060188,-0.2211404418945317,15.4211917,73.9812967,0.2990536,0.2272847144275742,0.0,0.07340877629752453,0.0007798438009504135
e01e8f19-0dd6-4004-bd72-10dd5a288f84,6,1767701495849,2.31795,-7.7179503,-5.19705,0.0023375,-0.009625,-0.0727375,-0.0191435813903808,-0.0488750413060188,-0.2211404418945317,15.4211917,73.9812967,0.2990536,0.2272847144275742,0.0,0.07340877629752453,0.003960953144462131
e01e8f19-0dd6-4004-bd72-10dd5a288f84,6,1767701495860,2.49,-7.79505,-4.986,-0.0116875,-0.007975,-0.051425,0.2221822738647461,-0.1724487692117691,-0.2316890335083012,15.4211917,73.9812967,0.2990536,0.3643944964874933,0.0,0.05333600009608894,-0.012897295309324546
e01e8f19-0dd6-4004-bd72-10dd5a288f84,6,1767701495870,2.49,-7.79505,-4.986,-0.0116875,-0.007975,-0.051425,0.2221822738647461,-0.1724487692117691,-0.2316890335083012,15.4211917,73.9812967,0.2990536,0.3643944964874933,0.0,0.05333600009608894,-0.009821837052403968
e01e8f19-0dd6-4004-bd72-10dd5a288f84,6,1767701495881,2.49,-7.79505,-4.986,-0.0116875,-0.007975,-0.051425,0.2221822738647461,-0.1724487692117691,-0.2316890335083012,15.4211917,73.9812967,0.2990536,0.3643944964874933,0.0,0.05333600009608894,-0.006962714852039357
e01e8f19-0dd6-4004-bd72-10dd5a288f84,6,1767701495891,2.56695,-7.79505,-4.776,-0.0089375,-0.006875,-0.0499125,0.4044485092163086,-0.2302733063697815,-0.3260322189331059,15.4211917,73.9812967,0.2990536,0.5682441376875,0.0,0.051170325262792686,-0.00646972230800974
e01e8f19-0dd6-4004-bd72-10dd5a288f84,6,1767701495901,2.56695,-7.79505,-4.776,-0.0089375,-0.006875,-0.0499125,0.4044485092163086,-0.2302733063697815,-0.3260322189331059,15.4211917,73.9812967,0.2990536,0.5682441376875,0.0,0.051170325262792686,-0.003921127096338546
e01e8f19-0dd6-4004-bd72-10dd5a288f84,6,1767701495912,2.433,-7.7179503,-4.9099503,0.0064625,-0.00055,-0.0559625,0.2244215011596679,-0.1141220331192016,-0.3479447937011724,15.4211917,73.9812967,0.2990536,0.4294815806175748,0.0,0.056337090912648304,0.0038166075821484203
e01e8f19-0dd6-4004-bd72-10dd5a288f84,6,1767701495922,2.433,-7.7179503,-4.9099503,0.0064625,-0.00055,-0.0559625,0.2244215011596679,-0.1141220331192016,-0.3479447937011724,15.4211917,73.9812967,0.2990536,0.4294815806175748,0.0,0.056337090912648304,0.006543340367071529
e01e8f19-0dd6-4004-bd72-10dd5a288f84,6,1767701495933,2.394,-7.7179503,-5.1010504,0.016224999,0.0099,-0.0444125,0.0516600608825683,-0.0670601651072502,-0.2542920684814458,15.4211917,73.9812967,0.2990536,0.2680117231151925,0.0,0.0483087026197144,0.0014887272609325842
e01e8f19-0dd6-4004-bd72-10dd5a288f84,6,1767701495943,2.394,-7.7179503,-5.1010504,0.016224999,0.0099,-0.0444125,0.0516600608825683,-0.0670601651072502,-0.2542920684814458,15.4211917,73.9812967,0.2990536,0.2680117231151925,0.0,0.0483087026197144,0.004721096725091399
e01e8f19-0dd6-4004-bd72-10dd5a288f84,6,1767701495954,2.3370001,-7.5649505,-5.1390004,0.032449998,0.012375,-0.0336875,-0.070713996887207,-0.0489834323525428,-0.3711457824707036,15.4211917,73.9812967,0.2990536,0.3809843013125225,0.0,0.04838378500541276,0.00819366333139148
e01e8f19-0dd6-4004-bd72-10dd5a288f84,6,1767701495964,2.3370001,-7.5649505,-5.1390004,0.032449998,0.012375,-0.0336875,-0.070713996887207,-0.0489834323525428,-0.3711457824707036,15.4211917,73.9812967,0.2990536,0.3809843013125225,0.0,0.04838378500541276,0.011550040068159531
e01e8f19-0dd6-4004-bd72-10dd5a288f84,6,1767701495975,2.3370001,-7.5649505,-5.1390004,0.032449998,0.012375,-0.0336875,-0.070713996887207,-0.0489834323525428,-0.3711457824707036,15.4211917,73.9812967,0.2990536,0.3809843013125225,0.0,0.04838378500541276,0.01455902674053577
e01e8f19-0dd6-4004-bd72-10dd5a288f84,6,1767701495985,2.433,-7.7380505,-5.04405,0.025575,0.0180125,-0.0114124995,0.1043195724487304,-0.0784643217921257,-0.2589612579345708,15.4211917,73.9812967,0.2990536,0.2900002691399432,0.0,0.03329828713443832,0.0017615771265160798
e01e8f19-0dd6-4004-bd72-10dd5a288f84,6,1767701495996,2.433,-7.7380505,-5.04405,0.025575,0.0180125,-0.0114124995,0.1043195724487304,-0.0784643217921257,-0.2589612579345708,15.4211917,73.9812967,0.2990536,0.2900002691399432,0.0,0.03329828713443832,0.0029372116874356266
e01e8f19-0dd6-4004-bd72-10dd5a288f84,6,1767701496007,2.35605,-7.9669504,-5.00505,0.0165,0.010175,0.0056375,0.2234091758728027,0.0678968429565429,-0.1136451339721684,15.4211917,73.9812967,0.2990536,0.2596860751430128,0.0,0.02018816562370143,-0.010459766985879375
e01e8f19-0dd6-4004-bd72-10dd5a288f84,6,1767701496017,2.35605,-7.9669504,-5.00505,0.0165,0.010175,0.0056375,0.2234091758728027,0.0678968429565429,-0.1136451339721684,15.4211917,73.9812967,0.2990536,0.2596860751430128,0.0,0.02018816562370143,-0.012457191763692735
e01e8f19-0dd6-4004-bd72-10dd5a288f84,6,1767701496028,2.05005,-7.9099503,-5.025,0.0171875,-0.00165,0.0165,0.1161623001098632,0.3343312740325928,-0.2237916564941411,15.4211917,73.9812967,0.2990536,0.418752655250641,0.0,0.023882685281391623,-0.012564383884904284
e01e8f19-0dd6-4004-bd72-10dd5a288f84,6,1767701496038,2.05005,-7.9099503,-5.025,0.0171875,-0.00165,0.0165,0.1161623001098632,0.3343312740325928,-0.2237916564941411,15.4211917,73.9812967,0.2990536,0.418752655250641,0.0,0.023882685281391623,-0.01807442751297061
e01e8f19-0dd6-4004-bd72-10dd5a288f84,6,1767701496049,1.9920001,-7.7760005,-4.94805,0.0207625,-0.028324999,0.0405625,0.0974078178405761,0.3399850130081177,-0.3870282745361333,15.4211917,73.9812967,0.2990536,0.5242794839939947,0.0,0.053653549564311225,0.004775442351494287
e01e8f19-0dd6-4004-bd72-10dd5a288f84,6,1767701496059,1.9920001,-7.7760005,-4.94805,0.0207625,-0.028324999,0.0405625,0.0974078178405761,0.3399850130081177,-0.3870282745361333,15.4211917,73.9812967,0.2990536,0.5242794839939947,0.0,0.053653549564311225,-0.003072653716713208
e01e8f19-0dd6-4004-bd72-10dd5a288f84,6,1767701496070,1.9920001,-7.7760005,-4.94805,0.0207625,-0.028324999,0.0405625,0.0974078178405761,0.3399850130081177,-0.3870282745361333,15.4211917,73.9812967,0.2990536,0.5242794839939947,0.0,0.053653549564311225,-0.011218422288443212
e01e8f19-0dd6-4004-bd72-10dd5a288f84,6,1767701496080,2.35605,-7.7179503,-4.9099503,0.0363,-0.0468875,0.054175,0.1576137542724609,-0.0382382199168205,-0.365475234985352,15.4211917,73.9812967,0.2990536,0.3998454756351072,0.0,0.08031848032209025,0.007715832641149288
e01e8f19-0dd6-4004-bd72-10dd5a288f84,6,1767701496091,2.35605,-7.7179503,-4.9099503,0.0363,-0.0468875,0.054175,0.1576137542724609,-0.0382382199168205,-0.365475234985352,15.4211917,73.9812967,0.2990536,0.3998454756351072,0.0,0.08031848032209025,0.0011204259013446291
e01e8f19-0dd6-4004-bd72-10dd5a288f84,6,1767701496102,2.7199502,-7.872,-4.986,0.0721875,-0.056649998,0.02915,0.2205352783203125,-0.3497121930122375,-0.1117635345458989,15.4211917,73.9812967,0.2990536,0.4282820502652878,0.0,0.09628073498706792,0.012270196834852249
e01e8f19-0dd6-4004-bd72-10dd5a288f84,6,1767701496113,2.7199502,-7.872,-4.986,0.0721875,-0.056649998,0.02915,0.2205352783203125,-0.3497121930122375,-0.1117635345458989,15.4211917,73.9812967,0.2990536,0.4282820502652878,0.0,0.09628073498706792,0.009742145450237825
e01e8f19-0dd6-4004-bd72-10dd5a288f84,6,1767701496123,2.66295,-7.833,-5.1589503,0.076175,-0.053625,0.0132,0.0279755592346191,-0.3112697601318359,-0.0650363540649419,15.4211917,73.9812967,0.2990536,0.3192197093493458,0.0,0.09408778480759339,0.007603155047329341
e01e8f19-0dd6-4004-bd72-10dd5a288f84,6,1767701496134,2.66295,-7.833,-5.1589503,0.076175,-0.053625,0.0132,0.0279755592346191,-0.3112697601318359,-0.0650363540649419,15.4211917,73.9812967,0.2990536,0.3192197093493458,0.0,0.09408778480759339,0.010298206053423456
e01e8f19-0dd6-4004-bd72-10dd5a288f84,6,1767701496144,2.66295,-7.833,-5.1589503,0.076175,-0.053625,0.0132,0.0279755592346191,-0.3112697601318359,-0.0650363540649419,15.4211917,73.9812967,0.2990536,0.3192197093493458,0.0,0.09408778480759339,0.01544776595462034
e01e8f19-0dd6-4004-bd72-10dd5a288f84,6,1767701496155,2.529,-7.9099503,-5.1780005,0.0504625,-0.0411125,0.00935,0.0144338607788085,-0.1602868139743805,-0.0248599624633794,15.4211917,73.9812967,0.2990536,0.1628441488194166,0.0,0.06575807222311189,-0.005689475454076026
e01e8f19-0dd6-4004-bd72-10dd5a288f84,6,1767701496165,2.529,-7.9099503,-5.1780005,0.0504625,-0.0411125,0.00935,0.0144338607788085,-0.1602868139743805,-0.0248599624633794,15.4211917,73.9812967,0.2990536,0.1628441488194166,0.0,0.06575807222311189,0.002954357677346681
e01e8f19-0dd6-4004-bd72-10dd5a288f84,6,1767701496176,2.3370001,-7.8520503,-5.00505,0.0306625,-0.01485,-0.0012375,0.0883030891418457,0.0016339197754859,-0.2100530242919926,15.4211917,73.9812967,0.2990536,0.2278648245342794,0.0,0.03409168245334923,-0.019325477884008443
e01e8f19-0dd6-4004-bd72-10dd5a288f84,6,1767701496187,2.3370001,-7.8520503,-5.00505,0.0306625,-0.01485,-0.0012375,0.0883030891418457,0.0016339197754859,-0.2100530242919926,15.4211917,73.9812967,0.2990536,0.2278648245342794,0.0,0.03409168245334923,-0.009950011533935156
e01e8f19-0dd6-4004-bd72-10dd5a288f84,6,1767701496197,2.184,-7.5460505,-4.9290004,0.0165,-0.0088,0.0031625,-0.0326719284057617,0.0547287762165069,-0.5361791229248052,15.4211917,73.9812967,0.2990536,0.5399543922520874,0.0,0.018965532058183868,-0.016439143689081375
e01e8f19-0dd6-4004-bd72-10dd5a288f84,6,1767701496208,2.184,-7.5460505,-4.9290004,0.0165,-0.0088,0.0031625,-0.0326719284057617,0.0547287762165069,-0.5361791229248052,15.4211917,73.9812967,0.2990536,0.5399543922520874,0.0,0.018965532058183868,-0.009178630728154155
e01e8f19-0dd6-4004-bd72-10dd5a288f84,6,1767701496218,2.26005,-7.39305,-5.025,0.021724999,-0.0125124995,0.0039875,-0.1771879196166992,-0.067913606762886,-0.5915599441528325,15.4211917,73.9812967,0.2990536,0.6212495347022323,0.0,0.02538579093779631,0.0026247208220922962
e01e8f19-0dd6-4004-bd72-10dd5a288f84,6,1767701496229,2.26005,-7.39305,-5.025,0.021724999,-0.0125124995,0.0039875,-0.1771879196166992,-0.067913606762886,-0.5915599441528325,15.4211917,73.9812967,0.2990536,0.6212495347022323,0.0,0.02538579093779631,0.005796134934983817
e01e8f19-0dd6-4004-bd72-10dd5a288f84,6,1767701496240,2.26005,-7.39305,-5.025,0.021724999,-0.0125124995,0.0039875,-0.1771879196166992,-0.067913606762886,-0.5915599441528325,15.4211917,73.9812967,0.2990536,0.6212495347022323,0.0,0.02538579093779631,0.0065991538805385275
e01e8f19-0dd6-4004-bd72-10dd5a288f84,6,1767701496250,2.4520502,-7.5270004,-5.1780005,0.0171875,-0.02475,-0.0004125,-0.2048845291137695,-0.2151205688714981,-0.35527759552002,15.4211917,73.9812967,0.2990536,0.4631162913353999,0.0,0.030135407953103936,0.009798612713697445
e01e8f19-0dd6-4004-bd72-10dd5a288f84,6,1767701496261,2.4520502,-7.5270004,-5.1780005,0.0171875,-0.02475,-0.0004125,-0.2048845291137695,-0.2151205688714981,-0.35527759552002,15.4211917,73.9812967,0.2990536,0.4631162913353999,0.0,0.030135407953103936,0.006063957904329237
e01e8f19-0dd6-4004-bd72-10dd5a288f84,6,1767701496272,2.5480502,-7.7380505,-5.1589503,0.0125124995,-0.034375,-0.0048125,-0.0646538734436035,-0.2406292706727981,-0.1703563308715825,15.4211917,73.9812967,0.2990536,0.3018341410838283,0.0,0.036896658723893964,0.007200937917428869
e01e8f19-0dd6-4004-bd72-10dd5a288f84,6,1767701496283,2.5480502,-7.7380505,-5.1589503,0.0125124995,-0.034375,-0.0048125,-0.0646538734436035,-0.2406292706727981,-0.1703563308715825,15.4211917,73.9812967,0.2990536,0.3018341410838283,0.0,0.036896658723893964,7.575124103746629e-05
e01e8f19-0dd6-4004-bd72-10dd5a288f84,6,1767701496293,2.66295,-7.8520503,-5.025,-0.0224125,-0.0169125,-0.0298375,0.124488353729248,-0.3064277768135071,-0.1204581832885747,15.4211917,73.9812967,0.2990536,0.3520021399626297,0.0,0.040971077832417345,-0.004028131509989878
e01e8f19-0dd6-4004-bd72-10dd5a288f84,6,1767701496304,2.66295,-7.8520503,-5.025,-0.0224125,-0.0169125,-0.0298375,0.124488353729248,-0.3064277768135071,-0.1204581832885747,15.4211917,73.9812967,0.2990536,0.3520021399626297,0.0,0.040971077832417345,-0.012787876727142216
e01e8f19-0dd6-4004-bd72-10dd5a288f84,6,1767701496315,2.7199502,-7.8520503,-4.9290004,-0.0226875,-0.0059125,-0.054449998,0.2152843475341797,-0.3441808521747589,-0.1568608856201176,15.4211917,73.9812967,0.2990536,0.4352162068839904,0.0,0.0592830717380603,-0.003356084967019436
e01e8f19-0dd6-4004-bd72-10dd5a288f84,6,1767701496325,2.7199502,-7.8520503,-4.9290004,-0.0226875,-0.0059125,-0.054449998,0.2152843475341797,-0.3441808521747589,-0.1568608856201176,15.4211917,73.9812967,0.2990536,0.4352162068839904,0.0,0.0592830717380603,-0.01193924843596879
e01e8f19-0dd6-4004-bd72-10dd5a288f84,6,1767701496336,2.7199502,-7.8520503,-4.9290004,-0.0226875,-0.0059125,-0.054449998,0.2152843475341797,-0.3441808521747589,-0.1568608856201176,15.4211917,73.9812967,0.2990536,0.4352162068839904,0.0,0.0592830717380603,-0.019880908046287265
e01e8f19-0dd6-4004-bd72-10dd5a288f84,6,1767701496347,2.70105,-7.872,-4.9099503,-0.0188375,0.0221375,-0.104775,0.2313761711120605,-0.2979843318462372,-0.1544652557373051,15.4211917,73.9812967,0.2990536,0.4076629855828427,0.0,0.1087323362091517,0.02251562917408222
e01e8f19-0dd6-4004-bd72-10dd5a288f84,6,1767701496357,2.70105,-7.872,-4.9099503,-0.0188375,0.0221375,-0.104775,0.2313761711120605,-0.2979843318462372,-0.1544652557373051,15.4211917,73.9812967,0.2990536,0.4076629855828427,0.0,0.1087323362091517,0.016486677427099458
e01e8f19-0dd6-4004-bd72-10dd5a288f84,6,1767701496367,2.7199502,-7.7569504,-4.87095,-0.015262499,0.032449998,-0.107525,0.2056121826171875,-0.3191413283348083,-0.2627254104614263,15.4211917,73.9812967,0.2990536,0.4616840893880084,0.0,0.11334712996333433,0.0161144596206869
e01e8f19-0dd6-4004-bd72-10dd5a288f84,6,1767701496378,2.7199502,-7.7569504,-4.87095,-0.015262499,0.032449998,-0.107525,0.2056121826171875,-0.3191413283348083,-0.2627254104614263,15.4211917,73.9812967,0.2990536,0.4616840893880084,0.0,0.11334712996333433,0.012080344154192754
e01e8f19-0dd6-4004-bd72-10dd5a288f84,6,1767701496388,2.7199502,-7.7569504,-4.87095,-0.015262499,0.032449998,-0.107525,0.2056121826171875,-0.3191413283348083,-0.2627254104614263,15.4211917,73.9812967,0.2990536,0.4616840893880084,0.0,0.11334712996333433,0.008826094169872
e01e8f19-0dd6-4004-bd72-10dd5a288f84,6,1767701496398,2.7580502,-7.833,-4.9290004,-0.01045,0.0279125,-0.090475,0.1950688362121582,-0.2998117208480835,-0.1596208190917973,15.4211917,73.9812967,0.2990536,0.3916857473876108,0.0,0.09525773344589929,-0.011960113461592264
e01e8f19-0dd6-4004-bd72-10dd5a288f84,6,1767701496409,2.739,-7.872,-4.79505,0.017875,0.0221375,-0.091437496,0.312690258026123,-0.2380096614360809,-0.2022634124755864,15.4211917,73.9812967,0.2990536,0.4419663838207952,0.0,0.09576220656396768,-0.013825788844608397
e01e8f19-0dd6-4004-bd72-10dd5a288f84,6,1767701496419,2.739,-7.872,-4.79505,0.017875,0.0221375,-0.091437496,0.312690258026123,-0.2380096614360809,-0.2022634124755864,15.4211917,73.9812967,0.2990536,0.4419663838207952,0.0,0.09576220656396768,-0.016067520260848702
e01e8f19-0dd6-4004-bd72-10dd5a288f84,6,1767701496430,2.739,-7.872,-4.79505,0.017875,0.0221375,-0.091437496,0.312690258026123,-0.2380096614360809,-0.2022634124755864,15.4211917,73.9812967,0.2990536,0.4419663838207952,0.0,0.09576220656396768,-0.018312784266272728
e01e8f19-0dd6-4004-bd72-10dd5a288f84,6,1767701496440,2.6820002,-7.7760005,-4.8520503,0.04455,0.01925,-0.10395,0.1929478645324707,-0.192044049501419,-0.2639222717285161,15.4211917,73.9812967,0.2990536,0.3791632377893258,0.0,0.11472082417765311,-0.00164769842027487
e01e8f19-0dd6-4004-bd72-10dd5a288f84,6,1767701496450,2.6820002,-7.7760005,-4.8520503,0.04455,0.01925,-0.10395,0.1929478645324707,-0.192044049501419,-0.2639222717285161,15.4211917,73.9812967,0.2990536,0.3791632377893258,0.0,0.11472082417765311,-0.003942199640183584
e01e8f19-0dd6-4004-bd72-10dd5a288f84,6,1767701496461,2.5090501,-7.7760005,-5.00505,0.0474375,0.037675,-0.1167375,0.0175952911376953,-0.0096522346138954,-0.2281594848632817,15.4211917,73.9812967,0.2990536,0.2290404122340423,0.0,0.13151945079531013,0.010688861208894992
e01e8f19-0dd6-4004-bd72-10dd5a288f84,6,1767701496471,2.5090501,-7.7760005,-5.00505,0.0474375,0.037675,-0.1167375,0.0175952911376953,-0.0096522346138954,-0.2281594848632817,15.4211917,73.9812967,0.2990536,0.2290404122340423,0.0,0.13151945079531013,0.008831896276800038
e01e8f19-0dd6-4004-bd72-10dd5a288f84,6,1767701496482,2.529,-7.7760005,-4.9290004,0.04235,0.070675,-0.102575,0.0708985328674316,-0.0017280504107475,-0.2626405334472661,15.4211917,73.9812967,0.2990536,0.2720471244664073,0.0,0.13156788646930526,0.00754013474612017
e01e8f19-0dd6-4004-bd72-10dd5a288f84,6,1767701496492,2.529,-7.7760005,-4.9290004,0.04235,0.070675,-0.102575,0.0708985328674316,-0.0017280504107475,-0.2626405334472661,15.4211917,73.9812967,0.2990536,0.2720471244664073,0.0,0.13156788646930526,0.006909712699448807
e01e8f19-0dd6-4004-bd72-10dd5a288f84,6,1767701496503,2.529,-7.7760005,-4.9290004,0.04235,0.070675,-0.102575,0.0708985328674316,-0.0017280504107475,-0.2626405334472661,15.4211917,73.9812967,0.2990536,0.2720471244664073,0.0,0.13156788646930526,0.007136646978295007
e01e8f19-0dd6-4004-bd72-10dd5a288f84,6,1767701496513,2.49,-7.8139505,-4.81395,0.059125,0.064075,-0.0818125,0.1612582206726074,0.0747508853673935,-0.3020864105224614,15.4211917,73.9812967,0.2990536,0.3504969443804748,0.0,0.11956026265549101,-0.003708798814218318
e01e8f19-0dd6-4004-bd72-10dd5a288f84,6,1767701496524,2.49,-7.8139505,-4.81395,0.059125,0.064075,-0.0818125,0.1612582206726074,0.0747508853673935,-0.3020864105224614,15.4211917,73.9812967,0.2990536,0.3504969443804748,0.0,0.11956026265549101,-0.0016166041070135816
e01e8f19-0dd6-4004-bd72-10dd5a288f84,6,1767701496534,2.49,-7.8520503,-4.87095,0.0801625,0.0565125,-0.05115,0.109349250793457,0.1040550097823143,-0.2413964843750005,15.4211917,73.9812967,0.2990536,0.2847050515507193,0.0,0.11061650673611059,-0.007628098115151918
e01e8f19-0dd6-4004-bd72-10dd5a288f84,6,1767701496544,2.49,-7.8520503,-4.87095,0.0801625,0.0565125,-0.05115,0.109349250793457,0.1040550097823143,-0.2413964843750005,15.4211917,73.9812967,0.2990536,0.2847050515507193,0.0,0.11061650673611059,-0.004020909960210735
e01e8f19-0dd6-4004-bd72-10dd5a288f84,6,1767701496555,2.56695,-7.872,-4.9099503,0.087037496,0.0589875,-0.036025,0.0755791664123535,0.0480571314692497,-0.1841369247436528,15.4211917,73.9812967,0.2990536,0.2047635351684685,0.0,0.11114338257944112,0.0005665560002469659
e01e8f19-0dd6-4004-bd72-10dd5a288f84,6,1767701496565,2.56695,-7.872,-4.9099503,0.087037496,0.0589875,-0.036025,0.0755791664123535,0.0480571314692497,-0.1841369247436528,15.4211917,73.9812967,0.2990536,0.2047635351684685,0.0,0.11114338257944112,0.004828154325983025
e01e8f19-0dd6-4004-bd72-10dd5a288f84,6,1767701496576,2.56695,-7.872,-4.9099503,0.087037496,0.0589875,-0.036025,0.0755791664123535,0.0480571314692497,-0.1841369247436528,15.4211917,73.9812967,0.2990536,0.2047635351684685,0.0,0.11114338257944112,0.009036790262286242
e01e8f19-0dd6-4004-bd72-10dd5a288f84,6,1767701496587,2.5860002,-7.9290004,-4.8910503,0.0738375,0.0627,-0.0099,0.095463752746582,0.0574383214116096,-0.1421981430053716,15.4211917,73.9812967,0.2990536,0.1806455112346278,0.0,0.09737184606573915,-0.0008046539119338259
e01e8f19-0dd6-4004-bd72-10dd5a288f84,6,1767701496597,2.5860002,-7.9290004,-4.8910503,0.0738375,0.0627,-0.0099,0.095463752746582,0.0574383214116096,-0.1421981430053716,15.4211917,73.9812967,0.2990536,0.1806455112346278,0.0,0.09737184606573915,0.0026771218286023054
e01e8f19-0dd6-4004-bd72-10dd5a288f84,6,1767701496607,2.5480502,-7.8520503,-4.81395,0.0488125,0.060775,0.032175,0.0935316085815429,0.0731904059648513,-0.2545161819458013,15.4211917,73.9812967,0.2990536,0.2808620376651479,0.0,0.08432965911380172,-0.007423950784665424
e01e8f19-0dd6-4004-bd72-10dd5a288f84,6,1767701496618,2.5480502,-7.8520503,-4.81395,0.0488125,0.060775,0.032175,0.0935316085815429,0.0731904059648513,-0.2545161819458013,15.4211917,73.9812967,0.2990536,0.2808620376651479,0.0,0.08432965911380172,-0.005025640739276461
e01e8f19-0dd6-4004-bd72-10dd5a288f84,6,1767701496628,2.4520502,-7.7569504,-4.8520503,0.0405625,0.0499125,0.0462,-0.0177545547485351,0.128245398402214,-0.3385444259643559,15.4211917,73.9812967,0.2990536,0.3624561142775724,0.0,0.07918973457778476,-0.00822049978741439
e01e8f19-0dd6-4004-bd72-10dd5a288f84,6,1767701496639,2.4520502,-7.7569504,-4.8520503,0.0405625,0.0499125,0.0462,-0.0177545547485351,0.128245398402214,-0.3385444259643559,15.4211917,73.9812967,0.2990536,0.3624561142775724,0.0,0.07918973457778476,-0.006558475308260377
e01e8f19-0dd6-4004-bd72-10dd5a288f84,6,1767701496649,2.433,-7.7760005,-4.87095,0.0303875,0.0306625,0.0682,-0.0395326614379882,0.1439469903707504,-0.3184495544433599,15.4211917,73.9812967,0.2990536,0.3517011317615312,0.0,0.08071449103166048,-0.0034271838217473883
e01e8f19-0dd6-4004-bd72-10dd5a288f84,6,1767701496660,2.433,-7.7760005,-4.87095,0.0303875,0.0306625,0.0682,-0.0395326614379882,0.1439469903707504,-0.3184495544433599,15.4211917,73.9812967,0.2990536,0.3517011317615312,0.0,0.08071449103166048,-0.0016245829346650342
e01e8f19-0dd6-4004-bd72-10dd5a288f84,6,1767701496670,2.433,-7.7760005,-4.87095,0.0303875,0.0306625,0.0682,-0.0395326614379882,0.1439469903707504,-0.3184495544433599,15.4211917,73.9812967,0.2990536,0.3517011317615312,0.0,0.08071449103166048,0.0006102342244609148
e01e8f19-0dd6-4004-bd72-10dd5a288f84,6,1767701496681,2.4709501,-7.79505,-4.9099503,0.0215875,0.0209,0.0809875,-0.0641870498657226,0.0998211428523063,-0.2726016616821294,15.4211917,73.9812967,0.2990536,0.2973144864998398,0.0,0.08638174177741498,0.009125133924565824
e01e8f19-0dd6-4004-bd72-10dd5a288f84,6,1767701496691,2.4709501,-7.79505,-4.9099503,0.0215875,0.0209,0.0809875,-0.0641870498657226,0.0998211428523063,-0.2726016616821294,15.4211917,73.9812967,0.2990536,0.2973144864998398,0.0,0.08638174177741498,0.012675785174069767
e01e8f19-0dd6-4004-bd72-10dd5a288f84,6,1767701496701,2.5860002,-7.79505,-4.9290004,0.0196625,-0.0022,0.07535,-0.063967227935791,-0.0241378545761108,-0.2318673706054692,15.4211917,73.9812967,0.2990536,0.2417372950639204,0.0,0.07790427720125513,0.008427581238081435
e01e8f19-0dd6-4004-bd72-10dd5a288f84,6,1767701496712,2.5860002,-7.79505,-4.9290004,0.0196625,-0.0022,0.07535,-0.063967227935791,-0.0241378545761108,-0.2318673706054692,15.4211917,73.9812967,0.2990536,0.2417372950639204,0.0,0.07790427720125513,0.013187374182842736
e01e8f19-0dd6-4004-bd72-10dd5a288f84,6,1767701496722,2.6239502,-7.8910503,-4.8910503,0.0202125,-0.014162499,0.0441375,0.0173468589782714,-0.0434653609991073,-0.1625152206420903,15.4211917,73.9812967,0.2990536,0.1691193308393279,0.0,0.05056916491722007,-0.009121265280875621
e01e8f19-0dd6-4004-bd72-10dd5a288f84,6,1767701496733,2.6239502,-7.8910503,-4.8910503,0.0202125,-0.014162499,0.0441375,0.0173468589782714,-0.0434653609991073,-0.1625152206420903,15.4211917,73.9812967,0.2990536,0.1691193308393279,0.0,0.05056916491722007,-0.004183357492229361
e01e8f19-0dd6-4004-bd72-10dd5a288f84,6,1767701496743,2.6239502,-7.8910503,-4.8910503,0.0202125,-0.014162499,0.0441375,0.0173468589782714,-0.0434653609991073,-0.1625152206420903,15.4211917,73.9812967,0.2990536,0.1691193308393279,0.0,0.05056916491722007,0.0002571563819249969
e01e8f19-0dd6-4004-bd72-10dd5a288f84,6,1767701496754,2.56695,-7.9480505,-4.8520503,0.017324999,-0.0017875,0.039325,0.0621275901794433,0.0186325088143348,-0.1508622741699223,15.4211917,73.9812967,0.2990536,0.1642145962268335,0.0,0.04300937539188404,-0.0037756677748379164
e01e8f19-0dd6-4004-bd72-10dd5a288f84,6,1767701496764,2.56695,-7.9480505,-4.8520503,0.017324999,-0.0017875,0.039325,0.0621275901794433,0.0186325088143348,-0.1508622741699223,15.4211917,73.9812967,0.2990536,0.1642145962268335,0.0,0.04300937539188404,-0.0015370687241239706
e01e8f19-0dd6-4004-bd72-10dd5a288f84,6,1767701496774,2.529,-7.79505,-4.8910503,0.013062499,0.014025,0.02915,-0.0547385215759277,-0.0036819130182266,-0.2665181732177739,15.4211917,73.9812967,0.2990536,0.2721062272038834,0.0,0.034886272445261345,-0.008998540322869019
e01e8f19-0dd6-4004-bd72-10dd5a288f84,6,1767701496785,2.529,-7.79505,-4.8910503,0.013062499,0.014025,0.02915,-0.0547385215759277,-0.0036819130182266,-0.2665181732177739,15.4211917,73.9812967,0.2990536,0.2721062272038834,0.0,0.034886272445261345,-0.010080657146735412
e01e8f19-0dd6-4004-bd72-10dd5a288f84,6,1767701496795,2.5480502,-7.6800003,-4.9099503,0.0070125,0.039325,0.0345125,-0.1233463287353515,-0.0625359043478965,-0.3462024307250981,15.4211917,73.9812967,0.2990536,0.3728017961129816,0.0,0.05278961486409993,0.004974056693523639
e01e8f19-0dd6-4004-bd72-10dd5a288f84,6,1767701496806,2.5480502,-7.6800003,-4.9099503,0.0070125,0.039325,0.0345125,-0.1233463287353515,-0.0625359043478965,-0.3462024307250981,15.4211917,73.9812967,0.2990536,0.3728017961129816,0.0,0.05278961486409993,0.0004866251669966927
e01e8f19-0dd6-4004-bd72-10dd5a288f84,6,1767701496816,2.5480502,-7.6800003,-4.9099503,0.0070125,0.039325,0.0345125,-0.1233463287353515,-0.0625359043478965,-0.3462024307250981,15.4211917,73.9812967,0.2990536,0.3728017961129816,0.0,0.05278961486409993,-0.005371075004409948
e01e8f19-0dd6-4004-bd72-10dd5a288f84,6,1767701496827,2.7199502,-7.7569504,-4.986,-0.006325,0.0617375,0.0430375,-0.1230421066284179,-0.2009900659322738,-0.1989093399047856,15.4211917,73.9812967,0.2990536,0.3083849738693121,0.0,0.07552318145774846,0.01051961490629429
e01e8f19-0dd6-4004-bd72-10dd5a288f84,6,1767701496838,2.7199502,-7.7569504,-4.986,-0.006325,0.0617375,0.0430375,-0.1230421066284179,-0.2009900659322738,-0.1989093399047856,15.4211917,73.9812967,0.2990536,0.3083849738693121,0.0,0.07552318145774846,0.0031572784398256073
e01e8f19-0dd6-4004-bd72-10dd5a288f84,6,1767701496849,2.835,-7.9290004,-5.00505,-0.019524999,0.0704,0.0347875,-0.0365724563598632,-0.2468150556087494,-0.017422256469727,15.4211917,73.9812967,0.2990536,0.250117474918969,0.0,0.08091696819703517,0.001171937134948061
e01e8f19-0dd6-4004-bd72-10dd5a288f84,6,1767701496862,2.835,-7.9290004,-5.00505,-0.019524999,0.0704,0.0347875,-0.0365724563598632,-0.2468150556087494,-0.017422256469727,15.4211917,73.9812967,0.2990536,0.250117474918969,0.0,0.08091696819703517,-0.0057313944669670925
e01e8f19-0dd6-4004-bd72-10dd5a288f84,7,1767701496872,2.835,-7.8910503,-4.986,-0.03575,0.080575,0.0235125,-0.0378813743591308,-0.2452230304479599,-0.0578446960449223,15.4211917,73.9812967,0.0,0.2547848936768959,0.0,0.09123174218028503,-0.0014076276683960135
e01e8f19-0dd6-4004-bd72-10dd5a288f84,7,1767701496883,2.835,-7.8910503,-4.986,-0.03575,0.080575,0.0235125,-0.0378813743591308,-0.2452230304479599,-0.0578446960449223,15.4211917,73.9812967,0.0,0.2547848936768959,0.0,0.09123174218028503,-0.0061466161045631035
e01e8f19-0dd6-4004-bd72-10dd5a288f84,7,1767701496894,2.6430001,-7.8139505,-4.9099503,-0.0449625,0.0946,-0.0045375,-0.0381379127502441,-0.0765982270240783,-0.2108550643920903,15.4211917,73.9812967,0.0,0.2275558106310846,0.0,0.10483976016998514,0.004185457845234606
e01e8f19-0dd6-4004-bd72-10dd5a288f84,7,1767701496904,2.6430001,-7.8139505,-4.9099503,-0.0449625,0.0946,-0.0045375,-0.0381379127502441,-0.0765982270240783,-0.2108550643920903,15.4211917,73.9812967,0.0,0.2275558106310846,0.0,0.10483976016998514,0.0024351870699631
e01e8f19-0dd6-4004-bd72-10dd5a288f84,7,1767701496915,2.5090501,-7.5649505,-4.87095,-0.045649998,0.098037496,-0.0191125,-0.141214370727539,-0.0151332449167966,-0.4703088378906255,15.4211917,73.9812967,0.0,0.4912849647604914,0.0,0.10982058366080569,0.007100409329859928
e01e8f19-0dd6-4004-bd72-10dd5a288f84,7,1767701496925,2.5090501,-7.5649505,-4.87095,-0.045649998,0.098037496,-0.0191125,-0.141214370727539,-0.0151332449167966,-0.4703088378906255,15.4211917,73.9812967,0.0,0.4912849647604914,0.0,0.10982058366080569,0.007985367676086328
e01e8f19-0dd6-4004-bd72-10dd5a288f84,7,1767701496935,2.5090501,-7.5649505,-4.87095,-0.045649998,0.098037496,-0.0191125,-0.141214370727539,-0.0151332449167966,-0.4703088378906255,15.4211917,73.9812967,0.0,0.4912849647604914,0.0,0.10982058366080569,0.009719725130068255
e01e8f19-0dd6-4004-bd72-10dd5a288f84,7,1767701496946,2.433,-7.4890504,-4.9290004,-0.0402875,0.088275,-0.0204875,-0.2334928512573242,0.0487033352255821,-0.5232596969604497,15.4211917,73.9812967,0.0,0.575057942222792,0.0,0.09917306054317374,0.0012272851156465683
e01e8f19-0dd6-4004-bd72-10dd5a288f84,7,1767701496956,2.433,-7.4890504,-4.9290004,-0.0402875,0.088275,-0.0204875,-0.2334928512573242,0.0487033352255821,-0.5232596969604497,15.4211917,73.9812967,0.0,0.575057942222792,0.0,0.09917306054317374,0.003345977652171838
e01e8f19-0dd6-4004-bd72-10dd5a288f84,7,1767701496967,2.5090501,-7.66095,-5.025,-0.0438625,0.067925,-0.0086624995,-0.2129664421081543,0.0451791211962699,-0.3132253265380864,15.4211917,73.9812967,0.0,0.3814524395533,0.0,0.08131889957960264,-0.012858428154592191
e01e8f19-0dd6-4004-bd72-10dd5a288f84,7,1767701496977,2.5090501,-7.66095,-5.025,-0.0438625,0.067925,-0.0086624995,-0.2129664421081543,0.0451791211962699,-0.3132253265380864,15.4211917,73.9812967,0.0,0.3814524395533,0.0,0.08131889957960264,-0.012035216082223065
e01e8f19-0dd6-4004-bd72-10dd5a288f84,7,1767701496988,2.5480502,-7.7380505,-5.1199503,-0.0573375,0.0625625,-0.0066,-0.2389922142028808,0.0426080450415611,-0.1910110092163091,15.4211917,73.9812967,0.0,0.3088979274674602,0.0,0.08511883054001623,-0.008480149454315047
e01e8f19-0dd6-4004-bd72-10dd5a288f84,7,1767701496998,2.5480502,-7.7380505,-5.1199503,-0.0573375,0.0625625,-0.0066,-0.2389922142028808,0.0426080450415611,-0.1910110092163091,15.4211917,73.9812967,0.0,0.3088979274674602,0.0,0.08511883054001623,-0.009892164737735059
e01e8f19-0dd6-4004-bd72-10dd5a288f84,7,1767701497008,2.5090501,-7.5840006,-5.19705,-0.0792,0.0600875,0.0050875,-0.3681306838989258,0.0401695817708969,-0.2871518707275395,15.4211917,73.9812967,0.0,0.4686043027863329,0.0,0.09954411239495785,0.002005558086231444
e01e8f19-0dd6-4004-bd72-10dd5a288f84,7,1767701497019,2.5090501,-7.5840006,-5.19705,-0.0792,0.0600875,0.0050875,-0.3681306838989258,0.0401695817708969,-0.2871518707275395,15.4211917,73.9812967,0.0,0.4686043027863329,0.0,0.09954411239495785,-0.0014459108609316987
e01e8f19-0dd6-4004-bd72-10dd5a288f84,7,1767701497029,2.5090501,-7.5840006,-5.19705,-0.0792,0.0600875,0.0050875,-0.3681306838989258,0.0401695817708969,-0.2871518707275395,15.4211917,73.9812967,0.0,0.4686043027863329,0.0,0.09954411239495785,-0.00551707025440071
e01e8f19-0dd6-4004-bd72-10dd5a288f84,7,1767701497040,2.5860002,-7.5649505,-5.21595,-0.1029875,0.0592625,0.0165,-0.3576793670654297,-0.0294181499630212,-0.270962295532227,15.4211917,73.9812967,0.0,0.4496893625289208,0.0,0.11996132319418622,0.010586361889076577
e01e8f19-0dd6-4004-bd72-10dd5a288f84,7,1767701497050,2.5860002,-7.5649505,-5.21595,-0.1029875,0.0592625,0.0165,-0.3576793670654297,-0.0294181499630212,-0.270962295532227,15.4211917,73.9812967,0.0,0.4496893625289208,0.0,0.11996132319418622,0.006433955013112119
e01e8f19-0dd6-4004-bd72-10dd5a288f84,7,1767701497061,2.739,-7.7380505,-5.1589503,-0.1189375,0.046475,0.0176,-0.1725673675537109,-0.1093088686466217,-0.117083129882813,15.4211917,73.9812967,0.0,0.2354493245103447,0.0,0.12890234494085046,0.01176938706342772
e01e8f19-0dd6-4004-bd72-10dd5a288f84,7,1767701497071,2.739,-7.7380505,-5.1589503,-0.1189375,0.046475,0.0176,-0.1725673675537109,-0.1093088686466217,-0.117083129882813,15.4211917,73.9812967,0.0,0.2354493245103447,0.0,0.12890234494085046,0.009038644669634893
e01e8f19-0dd6-4004-bd72-10dd5a288f84,7,1767701497082,2.739,-7.7380505,-5.1589503,-0.1189375,0.046475,0.0176,-0.1725673675537109,-0.1093088686466217,-0.117083129882813,15.4211917,73.9812967,0.0,0.2354493245103447,0.0,0.12890234494085046,0.0074256851662566625
e01e8f19-0dd6-4004-bd72-10dd5a288f84,7,1767701497093,2.7970502,-7.8139505,-5.1199503,-0.1128875,0.032449998,0.015125,-0.0657949447631836,-0.1291378736495971,-0.0594001388549809,15.4211917,73.9812967,0.0,0.1566331435652133,0.0,0.11842869437534978,-0.003399439611778501
e01e8f19-0dd6-4004-bd72-10dd5a288f84,7,1767701497103,2.7970502,-7.8139505,-5.1199503,-0.1128875,0.032449998,0.015125,-0.0657949447631836,-0.1291378736495971,-0.0594001388549809,15.4211917,73.9812967,0.0,0.1566331435652133,0.0,0.11842869437534978,-0.0024457152254052706
e01e8f19-0dd6-4004-bd72-10dd5a288f84,7,1767701497114,2.70105,-7.872,-5.04405,-0.1056,0.033825,0.01705,0.0339155197143554,-0.0130488239228725,-0.0783410644531255,15.4211917,73.9812967,0.0,0.086358882941558,0.0,0.1121882040367881,-0.006473355148221337
e01e8f19-0dd6-4004-bd72-10dd5a288f84,7,1767701497124,2.70105,-7.872,-5.04405,-0.1056,0.033825,0.01705,0.0339155197143554,-0.0130488239228725,-0.0783410644531255,15.4211917,73.9812967,0.0,0.086358882941558,0.0,0.1121882040367881,-0.0031200806781236097
e01e8f19-0dd6-4004-bd72-10dd5a288f84,7,1767701497134,2.56695,-7.833,-4.986,-0.0903375,0.033,0.0248875,0.0601263046264648,0.103198617696762,-0.1771884536743169,15.4211917,73.9812967,0.0,0.2136840548989382,0.0,0.09934410683326918,-0.011642335656230665
e01e8f19-0dd6-4004-bd72-10dd5a288f84,7,1767701497145,2.56695,-7.833,-4.986,-0.0903375,0.033,0.0248875,0.0601263046264648,0.103198617696762,-0.1771884536743169,15.4211917,73.9812967,0.0,0.2136840548989382,0.0,0.09934410683326918,-0.0065593991125588195
e01e8f19-0dd6-4004-bd72-10dd5a288f84,7,1767701497155,2.5480502,-7.5649505,-4.986,-0.080575,0.02915,0.0353375,-0.0594129562377929,0.0365238860249519,-0.3984981155395513,15.4211917,73.9812967,0.0,0.4045548685998614,0.0,0.09268652561861405,-0.00760345506047597
e01e8f19-0dd6-4004-bd72-10dd5a288f84,7,1767701497166,2.5480502,-7.5649505,-4.986,-0.080575,0.02915,0.0353375,-0.0594129562377929,0.0365238860249519,-0.3984981155395513,15.4211917,73.9812967,0.0,0.4045548685998614,0.0,0.09268652561861405,-0.0017064439154519163
e01e8f19-0dd6-4004-bd72-10dd5a288f84,7,1767701497176,2.5480502,-7.5649505,-4.986,-0.080575,0.02915,0.0353375,-0.0594129562377929,0.0365238860249519,-0.3984981155395513,15.4211917,73.9812967,0.0,0.4045548685998614,0.0,0.09268652561861405,0.004211441715515535
e01e8f19-0dd6-4004-bd72-10dd5a288f84,7,1767701497187,2.6430001,-7.5270004,-5.0820003,-0.0746625,0.0290125,0.037675,-0.1273460388183593,-0.0648119300603866,-0.3523297882080083,15.4211917,73.9812967,0.0,0.3802024191658695,0.0,0.08851903573525866,0.005702890123052397
e01e8f19-0dd6-4004-bd72-10dd5a288f84,7,1767701497197,2.6430001,-7.5270004,-5.0820003,-0.0746625,0.0290125,0.037675,-0.1273460388183593,-0.0648119300603866,-0.3523297882080083,15.4211917,73.9812967,0.0,0.3802024191658695,0.0,0.08851903573525866,0.010805009472643257
e01e8f19-0dd6-4004-bd72-10dd5a288f84,7,1767701497208,2.7769501,-7.7380505,-5.1010504,-0.07205,0.0290125,0.0246125,-3.7670135498046875e-05,-0.1230340227484703,-0.1355739212036137,15.4211917,73.9812967,0.0,0.1830782900379886,0.0,0.08147823520732393,0.007997428201718141
e01e8f19-0dd6-4004-bd72-10dd5a288f84,7,1767701497218,2.7769501,-7.7380505,-5.1010504,-0.07205,0.0290125,0.0246125,-3.7670135498046875e-05,-0.1230340227484703,-0.1355739212036137,15.4211917,73.9812967,0.0,0.1830782900379886,0.0,0.08147823520732393,0.011046945293325105
e01e8f19-0dd6-4004-bd72-10dd5a288f84,7,1767701497229,2.87295,-7.9099503,-5.06295,-0.0647625,0.0254375,0.0125124995,0.1403369903564453,-0.1510796546936035,0.0089678192138666,15.4211917,73.9812967,0.0,0.206397564680633,0.0,0.07069519401089087,0.001832591088605468
e01e8f19-0dd6-4004-bd72-10dd5a288f84,7,1767701497239,2.87295,-7.9099503,-5.06295,-0.0647625,0.0254375,0.0125124995,0.1403369903564453,-0.1510796546936035,0.0089678192138666,15.4211917,73.9812967,0.0,0.206397564680633,0.0,0.07069519401089087,0.0016693275944751505
e01e8f19-0dd6-4004-bd72-10dd5a288f84,7,1767701497250,2.87295,-7.9099503,-5.06295,-0.0647625,0.0254375,0.0125124995,0.1403369903564453,-0.1510796546936035,0.0089678192138666,15.4211917,73.9812967,0.0,0.206397564680633,0.0,0.07069519401089087,-0.00039796666495840895
e01e8f19-0dd6-4004-bd72-10dd5a288f84,7,1767701497260,2.60505,-7.833,-4.9290004,-0.023924999,-0.0012375,-0.061875,0.1789746284484863,0.0793740600347518,-0.1975637054443364,15.4211917,73.9812967,0.0,0.2781430868160678,0.0,0.0663509804629894,-0.008773875436966371
e01e8f19-0dd6-4004-bd72-10dd5a288f84,7,1767701497270,2.60505,-7.833,-4.9290004,-0.023924999,-0.0012375,-0.061875,0.1789746284484863,0.0793740600347518,-0.1975637054443364,15.4211917,73.9812967,0.0,0.2781430868160678,0.0,0.0663509804629894,-0.014692343882750973
e01e8f19-0dd6-4004-bd72-10dd5a288f84,7,1767701497281,2.5090501,-7.6800003,-4.986,0.005225,-0.0276375,-0.0793375,0.041731834411621,0.132838636636734,-0.3169208145141606,15.4211917,73.9812967,0.0,0.3461595760038775,0.0,0.08417583345295727,-0.004443055578163216
e01e8f19-0dd6-4004-bd72-10dd5a288f84,7,1767701497291,2.5090501,-7.6800003,-4.986,0.005225,-0.0276375,-0.0793375,0.041731834411621,0.132838636636734,-0.3169208145141606,15.4211917,73.9812967,0.0,0.3461595760038775,0.0,0.08417583345295727,-0.013296694242524129
e01e8f19-0dd6-4004-bd72-10dd5a288f84,7,1767701497302,2.433,-7.623,-4.9290004,0.036575,-0.0554125,-0.08305,0.0495038032531738,0.1948889046907425,-0.4140306091308599,15.4211917,73.9812967,0.0,0.4602756315571759,0.0,0.10632769291793177,-0.0007698351834759038
e01e8f19-0dd6-4004-bd72-10dd5a288f84,7,1767701497312,2.433,-7.623,-4.9290004,0.036575,-0.0554125,-0.08305,0.0495038032531738,0.1948889046907425,-0.4140306091308599,15.4211917,73.9812967,0.0,0.4602756315571759,0.0,0.10632769291793177,-0.010571679441154367
e01e8f19-0dd6-4004-bd72-10dd5a288f84,7,1767701497323,2.4139502,-7.6990504,-4.8910503,0.075625,-0.082225,-0.087037496,0.1109910011291503,0.2417841851711273,-0.3784490203857427,15.4211917,73.9812967,0.0,0.4626037781530165,0.0,0.14161785537124202,0.01536772209284699
e01e8f19-0dd6-4004-bd72-10dd5a288f84,7,1767701497333,2.4139502,-7.6990504,-4.8910503,0.075625,-0.082225,-0.087037496,0.1109910011291503,0.2417841851711273,-0.3784490203857427,15.4211917,73.9812967,0.0,0.4626037781530165,0.0,0.14161785537124202,0.007066720943320918
e01e8f19-0dd6-4004-bd72-10dd5a288f84,7,1767701497343,2.4139502,-7.6990504,-4.8910503,0.075625,-0.082225,-0.087037496,0.1109910011291503,0.2417841851711273,-0.3784490203857427,15.4211917,73.9812967,0.0,0.4626037781530165,0.0,0.14161785537124202,0.00032184397657014055
e01e8f19-0dd6-4004-bd72-10dd5a288f84,7,1767701497354,2.31795,-7.7569504,-4.8910503,0.0878625,-0.105875,-0.069299996,0.1099109649658203,0.3507708013057709,-0.3585200881958013,15.4211917,73.9812967,0.0,0.5134756361389852,0.0,0.1540513679811056,0.007925477920224173
e01e8f19-0dd6-4004-bd72-10dd5a288f84,7,1767701497365,2.31795,-7.7569504,-4.8910503,0.0878625,-0.105875,-0.069299996,0.1099109649658203,0.3507708013057709,-0.3585200881958013,15.4211917,73.9812967,0.0,0.5134756361389852,0.0,0.1540513679811056,0.005182160971174016
e01e8f19-0dd6-4004-bd72-10dd5a288f84,7,1767701497377,2.31795,-7.7569504,-4.8910503,0.0878625,-0.105875,-0.069299996,0.1099109649658203,0.3507708013057709,-0.3585200881958013,15.4211917,73.9812967,0.0,0.5134756361389852,0.0,0.1540513679811056,0.004490811649640437
e01e8f19-0dd6-4004-bd72-10dd5a288f84,7,1767701497387,2.2030501,-7.7179503,-4.986,0.08415,-0.13213749,-0.014712499,-0.0220823287963867,0.4379798173904419,-0.3713517761230474,15.4211917,73.9812967,0.0,0.5746443172225568,0.0,0.15734673936985508,0.008911194194553846
e01e8f19-0dd6-4004-bd72-10dd5a288f84,7,1767701497398,2.2410002,-7.7760005,-4.986,0.0664125,-0.1291125,0.01155,0.0036406517028808,0.3976547420024872,-0.3131404495239263,15.4211917,73.9812967,0.0,0.506161524920586,0.0,0.14565047309397933,-0.0002511540232472076
e01e8f19-0dd6-4004-bd72-10dd5a288f84,7,1767701497408,2.2410002,-7.7760005,-4.986,0.0664125,-0.1291125,0.01155,0.0036406517028808,0.3976547420024872,-0.3131404495239263,15.4211917,73.9812967,0.0,0.506161524920586,0.0,0.14565047309397933,0.0031625679954292245
e01e8f19-0dd6-4004-bd72-10dd5a288f84,7,1767701497419,2.3749502,-7.8910503,-4.8910503,0.053625,-0.117425,0.0334125,0.1559247970581054,0.2813085615634918,-0.2325254058837895,15.4211917,73.9812967,0.0,0.3968817374583432,0.0,0.13334416525011508,-0.0054354383624055985
e01e8f19-0dd6-4004-bd72-10dd5a288f84,7,1767701497429,2.3749502,-7.8910503,-4.8910503,0.053625,-0.117425,0.0334125,0.1559247970581054,0.2813085615634918,-0.2325254058837895,15.4211917,73.9812967,0.0,0.3968817374583432,0.0,0.13334416525011508,-0.0020008059644402295
e01e8f19-0dd6-4004-bd72-10dd5a288f84,7,1767701497439,2.3749502,-7.8910503,-4.8910503,0.053625,-0.117425,0.0334125,0.1559247970581054,0.2813085615634918,-0.2325254058837895,15.4211917,73.9812967,0.0,0.3968817374583432,0.0,0.13334416525011508,0.0006806464887560678
e01e8f19-0dd6-4004-bd72-10dd5a288f84,7,1767701497450,2.4139502,-7.9290004,-4.9290004,0.0488125,-0.0939125,0.0537625,0.1398983001708984,0.228538766503334,-0.1705251312255864,15.4211917,73.9812967,0.0,0.3176166282880601,0.0,0.1187123591659689,-0.012352202497778237
e01e8f19-0dd6-4004-bd72-10dd5a288f84,7,1767701497460,2.4139502,-7.9290004,-4.9290004,0.0488125,-0.0939125,0.0537625,0.1398983001708984,0.228538766503334,-0.1705251312255864,15.4211917,73.9812967,0.0,0.3176166282880601,0.0,0.1187123591659689,-0.011971619120307265
e01e8f19-0dd6-4004-bd72-10dd5a288f84,7,1767701497471,2.4139502,-7.9480505,-4.986,0.058575,-0.0768625,0.0752125,0.0919671058654785,0.2039813101291656,-0.1245055770874028,15.4211917,73.9812967,0.0,0.2560624185021109,0.0,0.12245731781931204,-0.008987687065303182
e01e8f19-0dd6-4004-bd72-10dd5a288f84,7,1767701497481,2.4139502,-7.9480505,-4.986,0.058575,-0.0768625,0.0752125,0.0919671058654785,0.2039813101291656,-0.1245055770874028,15.4211917,73.9812967,0.0,0.2560624185021109,0.0,0.12245731781931204,-0.010608644105549184
e01e8f19-0dd6-4004-bd72-10dd5a288f84,7,1767701497492,2.394,-7.8520503,-5.025,0.068475,-0.066275,0.1065625,-0.0007891654968261719,0.1602002382278442,-0.1865439987182622,15.4211917,73.9812967,0.0,0.2458930714116167,0.0,0.14295722316920542,0.007862838638015915
e01e8f19-0dd6-4004-bd72-10dd5a288f84,7,1767701497502,2.394,-7.8520503,-5.025,0.068475,-0.066275,0.1065625,-0.0007891654968261719,0.1602002382278442,-0.1865439987182622,15.4211917,73.9812967,0.0,0.2458930714116167,0.0,0.14295722316920542,0.00599363928765531
e01e8f19-0dd6-4004-bd72-10dd5a288f84,7,1767701497513,2.3749502,-7.8520503,-4.94805,0.058575,-0.0644875,0.111925,0.0501399040222168,0.1452253013849258,-0.23113208770752,15.4211917,73.9812967,0.0,0.2775363761847019,0.0,0.14183396598223572,0.003769232528918379
e01e8f19-0dd6-4004-bd72-10dd5a288f84,7,1767701497523,2.3749502,-7.8520503,-4.94805,0.058575,-0.0644875,0.111925,0.0501399040222168,0.1452253013849258,-0.23113208770752,15.4211917,73.9812967,0.0,0.2775363761847019,0.0,0.14183396598223572,0.004008350607465932
e01e8f19-0dd6-4004-bd72-10dd5a288f84,7,1767701497533,2.3749502,-7.8520503,-4.94805,0.058575,-0.0644875,0.111925,0.0501399040222168,0.1452253013849258,-0.23113208770752,15.4211917,73.9812967,0.0,0.2775363761847019,0.0,0.14183396598223572,0.006047535393383759
e01e8f19-0dd6-4004-bd72-10dd5a288f84,7,1767701497544,2.433,-7.833,-4.87095,0.0518375,-0.0573375,0.10945,0.1055269241333007,0.0512634217739105,-0.2712493515014653,15.4211917,73.9812967,0.0,0.2955335527803412,0.0,0.13399260357385404,0.0023290294290855976
e01e8f19-0dd6-4004-bd72-10dd5a288f84,7,1767701497555,2.433,-7.833,-4.87095,0.0518375,-0.0573375,0.10945,0.1055269241333007,0.0512634217739105,-0.2712493515014653,15.4211917,73.9812967,0.0,0.2955335527803412,0.0,0.13399260357385404,0.008598786743177963
e01e8f19-0dd6-4004-bd72-10dd5a288f84,7,1767701497565,2.4520502,-7.7380505,-4.94805,0.0523875,-0.041525,0.0903375,-0.010538101196289,-0.0274215415120124,-0.3035646057128911,15.4211917,73.9812967,0.0,0.3049827246867292,0.0,0.11238166971308088,-0.004771970780153124
e01e8f19-0dd6-4004-bd72-10dd5a288f84,7,1767701497575,2.4520502,-7.7380505,-4.94805,0.0523875,-0.041525,0.0903375,-0.010538101196289,-0.0274215415120124,-0.3035646057128911,15.4211917,73.9812967,0.0,0.3049827246867292,0.0,0.11238166971308088,0.00503041987913112
e01e8f19-0dd6-4004-bd72-10dd5a288f84,7,1767701497586,2.56695,-7.7179503,-4.986,0.047849998,-0.030524999,0.0759,-0.0393972396850585,-0.1660704910755157,-0.2712855911254888,15.4211917,73.9812967,0.0,0.3205111892792056,0.0,0.09477451066900848,-0.001817229753132992
e01e8f19-0dd6-4004-bd72-10dd5a288f84,7,1767701497596,2.56695,-7.7179503,-4.986,0.047849998,-0.030524999,0.0759,-0.0393972396850585,-0.1660704910755157,-0.2712855911254888,15.4211917,73.9812967,0.0,0.3205111892792056,0.0,0.09477451066900848,0.009155726427323013
e01e8f19-0dd6-4004-bd72-10dd5a288f84,7,1767701497607,2.56695,-7.7179503,-4.986,0.047849998,-0.030524999,0.0759,-0.0393972396850585,-0.1660704910755157,-0.2712855911254888,15.4211917,73.9812967,0.0,0.3205111892792056,0.0,0.09477451066900848,0.019535716898363066
e01e8f19-0dd6-4004-bd72-10dd5a288f84,7,1767701497617,2.7580502,-7.6990504,-5.1390004,0.0328625,-0.015125,0.0463375,-0.1486949920654297,-0.3679909706115722,-0.1594014739990239,15.4211917,73.9812967,0.0,0.4277106323556228,0.0,0.058786677381018906,-0.0074489977407367035
e01e8f19-0dd6-4004-bd72-10dd5a288f84,7,1767701497628,2.7580502,-7.6990504,-5.1390004,0.0328625,-0.015125,0.0463375,-0.1486949920654297,-0.3679909706115722,-0.1594014739990239,15.4211917,73.9812967,0.0,0.4277106323556228,0.0,0.058786677381018906,-0.0004991121145233788
e01e8f19-0dd6-4004-bd72-10dd5a288f84,7,1767701497638,2.739,-7.6039505,-5.06295,0.0253,0.005775,-0.000275,-0.1341691017150879,-0.3799325227737427,-0.2814469909667974,15.4211917,73.9812967,0.0,0.4914900593506633,0.0,0.02595219162228886,-0.02893114156884875
e01e8f19-0dd6-4004-bd72-10dd5a288f84,7,1767701497648,2.739,-7.6039505,-5.06295,0.0253,0.005775,-0.000275,-0.1341691017150879,-0.3799325227737427,-0.2814469909667974,15.4211917,73.9812967,0.0,0.4914900593506633,0.0,0.02595219162228886,-0.02733349163892208
e01e8f19-0dd6-4004-bd72-10dd5a288f84,7,1767701497659,2.7580502,-7.66095,-5.1199503,0.01375,0.024475,-0.0477125,-0.1528248786926269,-0.3723854124546051,-0.2001681900024419,15.4211917,73.9812967,0.0,0.4495482657571444,0.0,0.0553585655635151,0.0008724577292100084
e01e8f19-0dd6-4004-bd72-10dd5a288f84,7,1767701497669,2.7580502,-7.66095,-5.1199503,0.01375,0.024475,-0.0477125,-0.1528248786926269,-0.3723854124546051,-0.2001681900024419,15.4211917,73.9812967,0.0,0.4495482657571444,0.0,0.0553585655635151,-0.002859138132095548
e01e8f19-0dd6-4004-bd72-10dd5a288f84,7,1767701497680,2.7580502,-7.66095,-5.1199503,0.01375,0.024475,-0.0477125,-0.1528248786926269,-0.3723854124546051,-0.2001681900024419,15.4211917,73.9812967,0.0,0.4495482657571444,0.0,0.0553585655635151,-0.008629462989526193
e01e8f19-0dd6-4004-bd72-10dd5a288f84,7,1767701497690,2.70105,-7.9290004,-5.1199503,-0.022275,0.04675,-0.0710875,-0.03324556350708,-0.2124027609825134,0.0049080276489252,15.4211917,73.9812967,0.0,0.2150448536963873,0.0,0.08794981967718865,0.01681033882376196
