session_id,window_id,timestamp,accel_x,accel_y,accel_z,gyro_x,gyro_y,gyro_z,linear_accel_x,linear_accel_y,linear_accel_z,latitude,longitude,speed,vibration_intensity,anomaly_score,raw_magnitude,vibration_only
ec1eab38-6478-4922-856a-c33c61bedb0d,4,1767701601453,2.26005,-5.8230004,-5.5420504,-0.1087625,-0.2116125,0.6468,-0.3086817264556885,-2.319575071334839,-1.7941547012329109,15.42123,73.9812767,0.10294444,2.948678350000529,0.0,0.6891729620077242,0.08554347541810438
ec1eab38-6478-4922-856a-c33c61bedb0d,4,1767701601463,2.26005,-5.8230004,-5.5420504,-0.1087625,-0.2116125,0.6468,-0.3086817264556885,-2.319575071334839,-1.7941547012329109,15.42123,73.9812767,0.10294444,2.948678350000529,0.0,0.6891729620077242,0.10817229684388051
ec1eab38-6478-4922-856a-c33c61bedb0d,4,1767701601474,2.35605,-6.4350004,-5.7910504,-0.0903375,-0.1692625,0.5724125,-0.0796179771423339,-2.4647951126098633,-1.183590469360352,15.42123,73.9812767,0.10294444,2.7354049734162516,0.0,0.6037107982873504,0.05278349771100371
ec1eab38-6478-4922-856a-c33c61bedb0d,4,1767701601484,2.35605,-6.4350004,-5.7910504,-0.0903375,-0.1692625,0.5724125,-0.0796179771423339,-2.4647951126098633,-1.183590469360352,15.42123,73.9812767,0.10294444,2.7354049734162516,0.0,0.6037107982873504,0.08972220827069002
ec1eab38-6478-4922-856a-c33c61bedb0d,4,1767701601494,1.4749501,-6.9910502,-5.5800004,-0.1538625,-0.0614625,0.3757875,0.2136855125427246,-1.573253512382507,-0.8844237899780278,15.42123,73.9812767,0.10294444,1.817413973967858,0.0,0.41069155453789163,-0.06093583645358549
ec1eab38-6478-4922-856a-c33c61bedb0d,4,1767701601505,1.4749501,-6.9910502,-5.5800004,-0.1538625,-0.0614625,0.3757875,0.2136855125427246,-1.573253512382507,-0.8844237899780278,15.42123,73.9812767,0.10294444,1.817413973967858,0.0,0.41069155453789163,-0.015361059481118294
ec1eab38-6478-4922-856a-c33c61bedb0d,4,1767701601515,1.7820001,-7.6990504,-5.7910504,-0.1815,-0.0254375,0.285175,0.5670504570007324,-1.8283843994140625,-0.2015309906005864,15.42123,73.9812767,0.10294444,1.924876742281935,0.0,0.3389898184772664,-0.041048010902792524
ec1eab38-6478-4922-856a-c33c61bedb0d,4,1767701601526,1.7820001,-7.6990504,-5.7910504,-0.1815,-0.0254375,0.285175,0.5670504570007324,-1.8283843994140625,-0.2015309906005864,15.42123,73.9812767,0.10294444,1.924876742281935,0.0,0.3389898184772664,0.0023454700790779357
ec1eab38-6478-4922-856a-c33c61bedb0d,4,1767701601536,1.9729501,-7.2780004,-5.0820003,-0.20047499,0.0295625,0.14685,0.9404942989349364,-1.9392895698547363,-0.9757943725585942,15.42123,73.9812767,0.10294444,2.365913823365827,0.0,0.2502580378764089,-0.04864786254548145
ec1eab38-6478-4922-856a-c33c61bedb0d,4,1767701601547,1.9729501,-7.2780004,-5.0820003,-0.20047499,0.0295625,0.14685,0.9404942989349364,-1.9392895698547363,-0.9757943725585942,15.42123,73.9812767,0.10294444,2.365913823365827,0.0,0.2502580378764089,-0.01925643297912568
ec1eab38-6478-4922-856a-c33c61bedb0d,4,1767701601557,1.9729501,-7.2780004,-5.0820003,-0.20047499,0.0295625,0.14685,0.9404942989349364,-1.9392895698547363,-0.9757943725585942,15.42123,73.9812767,0.10294444,2.365913823365827,0.0,0.2502580378764089,-0.0002856899037501586
ec1eab38-6478-4922-856a-c33c61bedb0d,4,1767701601567,1.9729501,-6.5500503,-5.44605,-0.2044625,0.071225,0.0281875,0.2524952888488769,-2.0989990234375,-1.325564918518067,15.42123,73.9812767,0.10294444,2.4953302636100627,0.0,0.21834021546087196,-0.024898961842534626
ec1eab38-6478-4922-856a-c33c61bedb0d,4,1767701601578,1.9729501,-6.5500503,-5.44605,-0.2044625,0.071225,0.0281875,0.2524952888488769,-2.0989990234375,-1.325564918518067,15.42123,73.9812767,0.10294444,2.4953302636100627,0.0,0.21834021546087196,-0.02955409751959189
ec1eab38-6478-4922-856a-c33c61bedb0d,4,1767701601588,2.22195,-7.3549504,-5.5030503,-0.2371875,0.110825,-0.0518375,0.7735195159912109,-2.1895394325256348,-0.6490207290649419,15.42123,73.9812767,0.10294444,2.4111497827716852,0.0,0.26688427677085064,0.0030632215558734563
ec1eab38-6478-4922-856a-c33c61bedb0d,4,1767701601599,2.22195,-7.3549504,-5.5030503,-0.2371875,0.110825,-0.0518375,0.7735195159912109,-2.1895394325256348,-0.6490207290649419,15.42123,73.9812767,0.10294444,2.4111497827716852,0.0,0.26688427677085064,-0.022527789635793955
ec1eab38-6478-4922-856a-c33c61bedb0d,4,1767701601609,2.088,-7.3740005,-5.7520504,-0.3251875,0.1940125,-0.1546875,0.5742058753967285,-2.0118346214294434,-0.4588199234008794,15.42123,73.9812767,0.10294444,2.1418932404375024,0.0,0.40904276422979297,0.08675947193039787
ec1eab38-6478-4922-856a-c33c61bedb0d,4,1767701601620,2.088,-7.3740005,-5.7520504,-0.3251875,0.1940125,-0.1546875,0.5742058753967285,-2.0118346214294434,-0.4588199234008794,15.42123,73.9812767,0.10294444,2.1418932404375024,0.0,0.40904276422979297,0.0495643735510433
ec1eab38-6478-4922-856a-c33c61bedb0d,4,1767701601630,2.088,-7.3740005,-5.7520504,-0.3251875,0.1940125,-0.1546875,0.5742058753967285,-2.0118346214294434,-0.4588199234008794,15.42123,73.9812767,0.10294444,2.1418932404375024,0.0,0.40904276422979297,0.011329451746720535
ec1eab38-6478-4922-856a-c33c61bedb0d,4,1767701601641,2.29905,-7.5840006,-5.7709503,-0.2910875,0.2129875,-0.21835,0.7425012588500977,-2.0484862327575684,-0.2518115615844731,15.42123,73.9812767,0.10294444,2.1934021582324763,0.0,0.4216305614071399,-0.012008678517397162
ec1eab38-6478-4922-856a-c33c61bedb0d,4,1767701601651,2.29905,-7.5840006,-5.7709503,-0.2910875,0.2129875,-0.21835,0.7425012588500977,-2.0484862327575684,-0.2518115615844731,15.42123,73.9812767,0.10294444,2.1934021582324763,0.0,0.4216305614071399,-0.042473856120553904
ec1eab38-6478-4922-856a-c33c61bedb0d,4,1767701601662,1.59,-7.6800003,-5.5609503,-0.215875,0.20253749,-0.2820125,0.8066120147705078,-1.1934385299682615,-0.3042235946655278,15.42123,73.9812767,0.10294444,1.4722331550186467,0.0,0.40884532605467083,-0.07755310877461775
ec1eab38-6478-4922-856a-c33c61bedb0d,4,1767701601672,1.59,-7.6800003,-5.5609503,-0.215875,0.20253749,-0.2820125,0.8066120147705078,-1.1934385299682615,-0.3042235946655278,15.42123,73.9812767,0.10294444,1.4722331550186467,0.0,0.40884532605467083,-0.08961924969816788
ec1eab38-6478-4922-856a-c33c61bedb0d,4,1767701601683,1.7629501,-7.6800003,-5.5420504,-0.1524875,0.283525,-0.4879875,0.8493056297302246,-1.2341285943984983,-0.2936788177490239,15.42123,73.9812767,0.10294444,1.5266436022195655,0.0,0.5846115491824465,0.08554529528660029
ec1eab38-6478-4922-856a-c33c61bedb0d,4,1767701601693,1.7629501,-7.6800003,-5.5420504,-0.1524875,0.283525,-0.4879875,0.8493056297302246,-1.2341285943984983,-0.2936788177490239,15.42123,73.9812767,0.10294444,1.5266436022195655,0.0,0.5846115491824465,0.09671845766830557
ec1eab38-6478-4922-856a-c33c61bedb0d,4,1767701601704,1.3600501,-7.4689503,-5.3689504,-0.128975,0.2099625,-0.4107125,0.7432098388671875,-0.7094806432723999,-0.5685239410400396,15.42123,73.9812767,0.10294444,1.1742840879884675,0.0,0.47896091665969986,0.013368065704315623
ec1eab38-6478-4922-856a-c33c61bedb0d,4,1767701601714,1.3600501,-7.4689503,-5.3689504,-0.128975,0.2099625,-0.4107125,0.7432098388671875,-0.7094806432723999,-0.5685239410400396,15.42123,73.9812767,0.10294444,1.1742840879884675,0.0,0.47896091665969986,0.045241630825367585
ec1eab38-6478-4922-856a-c33c61bedb0d,4,1767701601725,1.3600501,-7.4689503,-5.3689504,-0.128975,0.2099625,-0.4107125,0.7432098388671875,-0.7094806432723999,-0.5685239410400396,15.42123,73.9812767,0.10294444,1.1742840879884675,0.0,0.47896091665969986,0.08436700124283111
ec1eab38-6478-4922-856a-c33c61bedb0d,4,1767701601739,1.15005,-7.3549504,-5.3500504,0.016224999,0.047849998,-0.2712875,0.6268458366394043,-0.4089191555976867,-0.6732164001464849,15.42123,73.9812767,0.10294444,1.0066632506221094,0.0,0.2759524969218434,-0.07513821331356015
ec1eab38-6478-4922-856a-c33c61bedb0d,4,1767701601750,1.15005,-7.3549504,-5.3500504,0.016224999,0.047849998,-0.2712875,0.6268458366394043,-0.4089191555976867,-0.6732164001464849,15.42123,73.9812767,0.10294444,1.0066632506221094,0.0,0.2759524969218434,-0.030411730340385346
ec1eab38-6478-4922-856a-c33c61bedb0d,4,1767701601760,1.07295,-7.6420503,-5.5030503,0.069575,-0.0066,-0.2123,0.6338667869567871,-0.2411984801292419,-0.3561235046386724,15.42123,73.9812767,0.10294444,0.7660207314294488,0.0,0.2235073390853195,-0.040043638965944026
ec1eab38-6478-4922-856a-c33c61bedb0d,4,1767701601770,1.07295,-7.6420503,-5.5030503,0.069575,-0.0066,-0.2123,0.6338667869567871,-0.2411984801292419,-0.3561235046386724,15.42123,73.9812767,0.10294444,0.7660207314294488,0.0,0.2235073390853195,-0.001971141198863647
ec1eab38-6478-4922-856a-c33c61bedb0d,4,1767701601781,0.86295,-7.4890504,-5.7709503,0.0699875,-0.0611875,-0.102437496,0.2473669052124023,-0.0711814761161804,-0.3195729827880864,15.42123,73.9812767,0.10294444,0.4103462923733009,0.0,0.13833148918178398,-0.05608401069076283
ec1eab38-6478-4922-856a-c33c61bedb0d,4,1767701601791,0.86295,-7.4890504,-5.7709503,0.0699875,-0.0611875,-0.102437496,0.2473669052124023,-0.0711814761161804,-0.3195729827880864,15.42123,73.9812767,0.10294444,0.4103462923733009,0.0,0.13833148918178398,-0.03355933143335794
ec1eab38-6478-4922-856a-c33c61bedb0d,4,1767701601802,1.4749501,-7.431,-5.8290005,0.0587125,-0.1434125,0.0523875,0.2959647178649902,-0.6668405532836914,-0.2789855575561528,15.42123,73.9812767,0.10294444,0.7810917865715401,0.0,0.16358102875562924,0.0049831083238909115
ec1eab38-6478-4922-856a-c33c61bedb0d,4,1767701601812,1.4749501,-7.431,-5.8290005,0.0587125,-0.1434125,0.0523875,0.2959647178649902,-0.6668405532836914,-0.2789855575561528,15.42123,73.9812767,0.10294444,0.7810917865715401,0.0,0.16358102875562924,0.009189938157517305
ec1eab38-6478-4922-856a-c33c61bedb0d,4,1767701601823,1.4749501,-7.431,-5.8290005,0.0587125,-0.1434125,0.0523875,0.2959647178649902,-0.6668405532836914,-0.2789855575561528,15.42123,73.9812767,0.10294444,0.7810917865715401,0.0,0.16358102875562924,0.005214273428315127
ec1eab38-6478-4922-856a-c33c61bedb0d,5,1767701601833,1.1880001,-7.4890504,-5.5030503,0.0507375,-0.157025,0.08525,0.4927616119384765,-0.3528945446014404,-0.4604840850830083,15.4212333,73.9812767,0.12456278,0.7611794521822032,0.0,0.18573827562258138,0.016724496667934356
ec1eab38-6478-4922-856a-c33c61bedb0d,5,1767701601844,1.1880001,-7.4890504,-5.5030503,0.0507375,-0.157025,0.08525,0.4927616119384765,-0.3528945446014404,-0.4604840850830083,15.4212333,73.9812767,0.12456278,0.7611794521822032,0.0,0.18573827562258138,0.0013286061925216932
ec1eab38-6478-4922-856a-c33c61bedb0d,5,1767701601854,1.6669501,-7.6420503,-5.59905,0.0281875,-0.1871375,0.1518,0.6092700958251953,-0.8179395794868469,-0.2450204467773442,15.4212333,73.9812767,0.12456278,1.048937664829008,0.0,0.2426071290430271,0.040170711596067846
ec1eab38-6478-4922-856a-c33c61bedb0d,5,1767701601865,1.6669501,-7.6420503,-5.59905,0.0281875,-0.1871375,0.1518,0.6092700958251953,-0.8179395794868469,-0.2450204467773442,15.4212333,73.9812767,0.12456278,1.048937664829008,0.0,0.2426071290430271,0.021616900187226062
ec1eab38-6478-4922-856a-c33c61bedb0d,5,1767701601875,1.57095,-7.431,-5.5030503,0.0383625,-0.196625,0.153725,0.5316119194030762,-0.7959226369857788,-0.4796662902832036,15.4212333,73.9812767,0.12456278,1.0705997510516567,0.0,0.2525162324609054,0.014353095637630148
ec1eab38-6478-4922-856a-c33c61bedb0d,5,1767701601886,1.57095,-7.431,-5.5030503,0.0383625,-0.196625,0.153725,0.5316119194030762,-0.7959226369857788,-0.4796662902832036,15.4212333,73.9812767,0.12456278,1.0705997510516567,0.0,0.2525162324609054,0.00013560806386685777
ec1eab38-6478-4922-856a-c33c61bedb0d,5,1767701601896,1.30305,-7.39305,-5.5030503,0.0424875,-0.2052875,0.160325,0.4328408241271972,-0.5809184908866882,-0.5302425003051763,15.4212333,73.9812767,0.12456278,0.897760870842043,0.0,0.2639171289202351,0.001430239207706965
ec1eab38-6478-4922-856a-c33c61bedb0d,5,1767701601907,1.30305,-7.39305,-5.5030503,0.0424875,-0.2052875,0.160325,0.4328408241271972,-0.5809184908866882,-0.5302425003051763,15.4212333,73.9812767,0.12456278,0.897760870842043,0.0,0.2639171289202351,-0.0038599025433413035
ec1eab38-6478-4922-856a-c33c61bedb0d,5,1767701601917,1.30305,-7.39305,-5.5030503,0.0424875,-0.2052875,0.160325,0.4328408241271972,-0.5809184908866882,-0.5302425003051763,15.4212333,73.9812767,0.12456278,0.897760870842043,0.0,0.2639171289202351,-0.004064949800772992
ec1eab38-6478-4922-856a-c33c61bedb0d,5,1767701601928,1.3219501,-7.5840006,-5.5420504,0.0306625,-0.1841125,0.14973749,0.5136213302612305,-0.6115013360977173,-0.3579516983032231,15.4212333,73.9812767,0.12456278,0.8751400877955318,0.0,0.23928835632767448,-0.023929239969316837
ec1eab38-6478-4922-856a-c33c61bedb0d,5,1767701601938,1.3219501,-7.5840006,-5.5420504,0.0306625,-0.1841125,0.14973749,0.5136213302612305,-0.6115013360977173,-0.3579516983032231,15.4212333,73.9812767,0.12456278,0.8751400877955318,0.0,0.23928835632767448,-0.014620769264667816
ec1eab38-6478-4922-856a-c33c61bedb0d,5,1767701601949,1.092,-7.5079503,-5.7709503,0.024475,-0.1654125,0.1480875,0.2245502471923828,-0.4826311469078064,-0.2925258255004888,15.4212333,73.9812767,0.12456278,0.6073936088439252,0.0,0.22336120620533012,-0.017346704513034335
ec1eab38-6478-4922-856a-c33c61bedb0d,5,1767701601959,1.092,-7.5079503,-5.7709503,0.024475,-0.1654125,0.1480875,0.2245502471923828,-0.4826311469078064,-0.2925258255004888,15.4212333,73.9812767,0.12456278,0.6073936088439252,0.0,0.22336120620533012,-0.0010472795548445806
ec1eab38-6478-4922-856a-c33c61bedb0d,5,1767701601970,1.4940001,-7.5840006,-5.7520504,0.0023375,-0.1304875,0.1392875,0.3833818435668945,-0.8819825649261475,-0.22301441192627,15.4212333,73.9812767,0.12456278,0.9872235363570284,0.0,0.19087550712113383,-0.015000833461911696
ec1eab38-6478-4922-856a-c33c61bedb0d,5,1767701601980,1.4940001,-7.5840006,-5.7520504,0.0023375,-0.1304875,0.1392875,0.3833818435668945,-0.8819825649261475,-0.22301441192627,15.4212333,73.9812767,0.12456278,0.9872235363570284,0.0,0.19087550712113383,0.004885662847438799
ec1eab38-6478-4922-856a-c33c61bedb0d,5,1767701601991,1.4940001,-7.5840006,-5.7520504,0.0023375,-0.1304875,0.1392875,0.3833818435668945,-0.8819825649261475,-0.22301441192627,15.4212333,73.9812767,0.12456278,0.9872235363570284,0.0,0.19087550712113383,0.025278744131973358
ec1eab38-6478-4922-856a-c33c61bedb0d,5,1767701602001,1.092,-7.5270004,-5.427,-0.0133375,-0.095699996,0.1142625,0.493262767791748,-0.4828625917434692,-0.4920554733276372,15.4212333,73.9812767,0.12456278,0.847692768299035,0.0,0.14964055949808533,0.004157726255410608
ec1eab38-6478-4922-856a-c33c61bedb0d,5,1767701602012,1.092,-7.5270004,-5.427,-0.0133375,-0.095699996,0.1142625,0.493262767791748,-0.4828625917434692,-0.4920554733276372,15.4212333,73.9812767,0.12456278,0.847692768299035,0.0,0.14964055949808533,0.02329209735234542
ec1eab38-6478-4922-856a-c33c61bedb0d,5,1767701602022,1.6480501,-7.66095,-5.3500504,-0.0356125,-0.06655,0.097625,0.7680387496948242,-0.9917390942573548,-0.4049020385742192,15.4212333,73.9812767,0.12456278,1.318095449105544,0.0,0.12340094522024539,0.01461106355492354
ec1eab38-6478-4922-856a-c33c61bedb0d,5,1767701602033,1.6480501,-7.66095,-5.3500504,-0.0356125,-0.06655,0.097625,0.7680387496948242,-0.9917390942573548,-0.4049020385742192,15.4212333,73.9812767,0.12456278,1.318095449105544,0.0,0.12340094522024539,0.03011821823395766
ec1eab38-6478-4922-856a-c33c61bedb0d,5,1767701602043,1.6290001,-7.5649505,-5.2930503,-0.0026125,-0.034649998,0.0207625,0.7501168251037598,-0.9936575293540956,-0.5176091766357427,15.4212333,73.9812767,0.12456278,1.3483136863072187,0.0,0.04047874657026825,-0.039689658250583154
ec1eab38-6478-4922-856a-c33c61bedb0d,5,1767701602053,1.6290001,-7.5649505,-5.2930503,-0.0026125,-0.034649998,0.0207625,0.7501168251037598,-0.9936575293540956,-0.5176091766357427,15.4212333,73.9812767,0.12456278,1.3483136863072187,0.0,0.04047874657026825,-0.029167137983214665
ec1eab38-6478-4922-856a-c33c61bedb0d,5,1767701602064,1.284,-7.5460505,-5.5219502,0.0163625,-0.0121,-0.0372625,0.4563822746276855,-0.6927298903465271,-0.4081216430664067,15.4212333,73.9812767,0.12456278,0.9245121725067093,0.0,0.042457452967647503,-0.019315309699009065
ec1eab38-6478-4922-856a-c33c61bedb0d,5,1767701602074,1.284,-7.5460505,-5.5219502,0.0163625,-0.0121,-0.0372625,0.4563822746276855,-0.6927298903465271,-0.4081216430664067,15.4212333,73.9812767,0.12456278,0.9245121725067093,0.0,0.042457452967647503,-0.014021509657627152
ec1eab38-6478-4922-856a-c33c61bedb0d,5,1767701602085,1.284,-7.5460505,-5.5219502,0.0163625,-0.0121,-0.0372625,0.4563822746276855,-0.6927298903465271,-0.4081216430664067,15.4212333,73.9812767,0.12456278,0.9245121725067093,0.0,0.042457452967647503,-0.011136718817001756
ec1eab38-6478-4922-856a-c33c61bedb0d,5,1767701602095,1.284,-7.7760005,-5.5609503,0.044825,-0.00385,-0.0543125,0.5378012657165527,-0.6348152756690979,-0.2002778625488286,15.4212333,73.9812767,0.12456278,0.8557639031042887,0.0,0.07052624179161966,0.01763952129328984
ec1eab38-6478-4922-856a-c33c61bedb0d,5,1767701602106,1.284,-7.7760005,-5.5609503,0.044825,-0.00385,-0.0543125,0.5378012657165527,-0.6348152756690979,-0.2002778625488286,15.4212333,73.9812767,0.12456278,0.8557639031042887,0.0,0.07052624179161966,0.016418066361618387
ec1eab38-6478-4922-856a-c33c61bedb0d,5,1767701602116,0.9580501,-7.4890504,-5.3880005,0.0583,-0.0166375,-0.0418,0.3903708457946777,-0.3306396603584289,-0.5486493682861333,15.4212333,73.9812767,0.12456278,0.7501520589648225,0.0,0.07364058939368967,0.01660502127094739
ec1eab38-6478-4922-856a-c33c61bedb0d,5,1767701602126,0.9580501,-7.4890504,-5.3880005,0.0583,-0.0166375,-0.0418,0.3903708457946777,-0.3306396603584289,-0.5486493682861333,15.4212333,73.9812767,0.12456278,0.7501520589648225,0.0,0.07364058939368967,0.0121379211644342
ec1eab38-6478-4922-856a-c33c61bedb0d,5,1767701602137,1.6290001,-7.6039505,-5.46495,0.0639375,-0.0345125,-0.034925,0.5501155853271484,-0.9510521292686462,-0.3690095520019536,15.4212333,73.9812767,0.12456278,1.1590061946663357,0.0,0.08061558278335522,0.013202340659455788
ec1eab38-6478-4922-856a-c33c61bedb0d,5,1767701602148,1.6290001,-7.6039505,-5.46495,0.0639375,-0.0345125,-0.034925,0.5501155853271484,-0.9510521292686462,-0.3690095520019536,15.4212333,73.9812767,0.12456278,1.1590061946663357,0.0,0.08061558278335522,0.005883112118068431
ec1eab38-6478-4922-856a-c33c61bedb0d,5,1767701602158,1.6290001,-7.6039505,-5.46495,0.0639375,-0.0345125,-0.034925,0.5501155853271484,-0.9510521292686462,-0.3690095520019536,15.4212333,73.9812767,0.12456278,1.1590061946663357,0.0,0.08061558278335522,-0.0028413343062593257
ec1eab38-6478-4922-856a-c33c61bedb0d,5,1767701602168,1.3990501,-7.5270004,-5.5030503,0.0704,-0.0661375,-0.0331375,0.3921623229980469,-0.7420539259910583,-0.4189296340942388,15.4212333,73.9812767,0.12456278,0.9380497614627384,0.0,0.10211964949264173,0.008551871374773517
ec1eab38-6478-4922-856a-c33c61bedb0d,5,1767701602179,1.3990501,-7.5270004,-5.5030503,0.0704,-0.0661375,-0.0331375,0.3921623229980469,-0.7420539259910583,-0.4189296340942388,15.4212333,73.9812767,0.12456278,0.9380497614627384,0.0,0.10211964949264173,-0.002856163751005645
ec1eab38-6478-4922-856a-c33c61bedb0d,5,1767701602189,1.9920001,-7.6990504,-5.5030503,0.066,-0.0705375,-0.0430375,0.612617015838623,-1.2496650218963623,-0.2397294616699223,15.4212333,73.9812767,0.12456278,1.412243778474101,0.0,0.10575332293833607,-0.01171536706527593
ec1eab38-6478-4922-856a-c33c61bedb0d,5,1767701602200,1.9920001,-7.6990504,-5.5030503,0.066,-0.0705375,-0.0430375,0.612617015838623,-1.2496650218963623,-0.2397294616699223,15.4212333,73.9812767,0.12456278,1.412243778474101,0.0,0.10575332293833607,-0.024918750011090385
ec1eab38-6478-4922-856a-c33c61bedb0d,5,1767701602210,2.2800002,-7.6039505,-5.46495,0.0741125,-0.053075,-0.076725,0.6439967155456543,-1.518423557281494,-0.314536628723145,15.4212333,73.9812767,0.12456278,1.679069730460739,0.0,0.11914841126196353,-0.024885987450266243
ec1eab38-6478-4922-856a-c33c61bedb0d,5,1767701602220,2.2800002,-7.6039505,-5.46495,0.0741125,-0.053075,-0.076725,0.6439967155456543,-1.518423557281494,-0.314536628723145,15.4212333,73.9812767,0.12456278,1.679069730460739,0.0,0.11914841126196353,-0.037693534329398946
ec1eab38-6478-4922-856a-c33c61bedb0d,5,1767701602231,1.4749501,-7.7179503,-5.59905,0.0836,-0.0015125,-0.1648625,0.3430719375610351,-0.7117346525192261,-0.1940045928955083,15.4212333,73.9812767,0.12456278,0.8135738147231008,0.0,0.1848537031343976,0.01658781039164031
ec1eab38-6478-4922-856a-c33c61bedb0d,5,1767701602241,1.4749501,-7.7179503,-5.59905,0.0836,-0.0015125,-0.1648625,0.3430719375610351,-0.7117346525192261,-0.1940045928955083,15.4212333,73.9812767,0.12456278,0.8135738147231008,0.0,0.1848537031343976,0.007416345481069382
ec1eab38-6478-4922-856a-c33c61bedb0d,5,1767701602252,1.4749501,-7.7179503,-5.59905,0.0836,-0.0015125,-0.1648625,0.3430719375610351,-0.7117346525192261,-0.1940045928955083,15.4212333,73.9812767,0.12456278,0.8135738147231008,0.0,0.1848537031343976,0.0013126759074245085
ec1eab38-6478-4922-856a-c33c61bedb0d,5,1767701602262,1.6669501,-7.9669504,-5.427,0.0818125,0.008525,-0.20047499,0.6127891540527344,-0.7519357204437256,-0.075400886535645,15.4212333,73.9812767,0.12456278,0.9729353363375448,0.0,0.21669375255588263,0.030779614410739634
ec1eab38-6478-4922-856a-c33c61bedb0d,5,1767701602273,1.6669501,-7.9669504,-5.427,0.0818125,0.008525,-0.20047499,0.6127891540527344,-0.7519357204437256,-0.075400886535645,15.4212333,73.9812767,0.12456278,0.9729353363375448,0.0,0.21669375255588263,0.032557675615337914
ec1eab38-6478-4922-856a-c33c61bedb0d,5,1767701602283,1.11195,-7.4689503,-5.31195,0.0798875,-0.0053625,-0.161425,0.2364883422851562,-0.272438645362854,-0.5845828628540044,15.4212333,73.9812767,0.12456278,0.6869400811326355,0.0,0.18019100889750297,0.002095960059615801
ec1eab38-6478-4922-856a-c33c61bedb0d,5,1767701602294,1.11195,-7.4689503,-5.31195,0.0798875,-0.0053625,-0.161425,0.2364883422851562,-0.272438645362854,-0.5845828628540044,15.4212333,73.9812767,0.12456278,0.6869400811326355,0.0,0.18019100889750297,0.012169215696267697
ec1eab38-6478-4922-856a-c33c61bedb0d,5,1767701602305,1.2070501,-7.5079503,-5.274,0.0697125,-0.0083875,-0.11715,0.2858204841613769,-0.3171582221984863,-0.5655904388427739,15.4212333,73.9812767,0.12456278,0.7086432329350997,0.0,0.1365807647968776,-0.01790464141609391
ec1eab38-6478-4922-856a-c33c61bedb0d,5,1767701602315,1.2070501,-7.5079503,-5.274,0.0697125,-0.0083875,-0.11715,0.2858204841613769,-0.3171582221984863,-0.5655904388427739,15.4212333,73.9812767,0.12456278,0.7086432329350997,0.0,0.1365807647968776,-0.0017711363849493927
ec1eab38-6478-4922-856a-c33c61bedb0d,5,1767701602326,1.2070501,-7.5079503,-5.274,0.0697125,-0.0083875,-0.11715,0.2858204841613769,-0.3171582221984863,-0.5655904388427739,15.4212333,73.9812767,0.12456278,0.7086432329350997,0.0,0.1365807647968776,0.015869616379640676
ec1eab38-6478-4922-856a-c33c61bedb0d,5,1767701602337,0.9580501,-7.7760005,-5.3310003,0.0490875,-0.006875,-0.0611875,0.2907485961914062,-0.0090777873992919,-0.3379865264892583,15.4212333,73.9812767,0.12456278,0.445928295244442,0.0,0.078744894675782,-0.02403665055612407
ec1eab38-6478-4922-856a-c33c61bedb0d,5,1767701602347,0.9580501,-7.7760005,-5.3310003,0.0490875,-0.006875,-0.0611875,0.2907485961914062,-0.0090777873992919,-0.3379865264892583,15.4212333,73.9812767,0.12456278,0.445928295244442,0.0,0.078744894675782,-0.0070589386199442
ec1eab38-6478-4922-856a-c33c61bedb0d,5,1767701602358,0.97695005,-7.833,-5.46495,0.047025,-0.016224999,-0.0182875,0.1962175369262695,-0.0280892848968505,-0.2112126922607426,15.4212333,73.9812767,0.12456278,0.2896569196402178,0.0,0.05300031956318755,-0.01793555816389672
ec1eab38-6478-4922-856a-c33c61bedb0d,5,1767701602369,0.97695005,-7.833,-5.46495,0.047025,-0.016224999,-0.0182875,0.1962175369262695,-0.0280892848968505,-0.2112126922607426,15.4212333,73.9812767,0.12456278,0.2896569196402178,0.0,0.05300031956318755,-0.006158780375612581
ec1eab38-6478-4922-856a-c33c61bedb0d,5,1767701602379,0.97695005,-7.833,-5.46495,0.047025,-0.016224999,-0.0182875,0.1962175369262695,-0.0280892848968505,-0.2112126922607426,15.4212333,73.9812767,0.12456278,0.2896569196402178,0.0,0.05300031956318755,0.0017954064644280648
ec1eab38-6478-4922-856a-c33c61bedb0d,5,1767701602390,1.5520501,-7.7179503,-5.427,0.0518375,-0.014575,-0.0048125,0.3125171661376953,-0.5946853756904602,-0.2718320465087895,15.4212333,73.9812767,0.12456278,0.7247139688870337,0.0,0.05406216040355768,0.006555736315542063
ec1eab38-6478-4922-856a-c33c61bedb0d,5,1767701602400,1.24605,-7.4689503,-5.2540503,0.059125,-0.011,0.0070125,0.2122817039489746,-0.3310783505439758,-0.6019483184814458,15.4212333,73.9812767,0.12456278,0.7190397583952086,0.0,0.06054701298371374,0.012369566768590728
ec1eab38-6478-4922-856a-c33c61bedb0d,5,1767701602410,1.24605,-7.4689503,-5.2540503,0.059125,-0.011,0.0070125,0.2122817039489746,-0.3310783505439758,-0.6019483184814458,15.4212333,73.9812767,0.12456278,0.7190397583952086,0.0,0.06054701298371374,0.007528934987023042
ec1eab38-6478-4922-856a-c33c61bedb0d,5,1767701602421,1.24605,-7.4689503,-5.2540503,0.059125,-0.011,0.0070125,0.2122817039489746,-0.3310783505439758,-0.6019483184814458,15.4212333,73.9812767,0.12456278,0.7190397583952086,0.0,0.06054701298371374,-0.0009970699624931602
ec1eab38-6478-4922-856a-c33c61bedb0d,5,1767701602431,1.5139501,-7.9290004,-5.3310003,0.0653125,-0.0191125,0.006875,0.4515371322631836,-0.4860312342643738,-0.1590629196166997,15.4212333,73.9812767,0.12456278,0.6822119574516405,0.0,0.06839792348821709,-0.004638152375382167
ec1eab38-6478-4922-856a-c33c61bedb0d,5,1767701602442,1.5139501,-7.9290004,-5.3310003,0.0653125,-0.0191125,0.006875,0.4515371322631836,-0.4860312342643738,-0.1590629196166997,15.4212333,73.9812767,0.12456278,0.6822119574516405,0.0,0.06839792348821709,-0.01820591790752405
ec1eab38-6478-4922-856a-c33c61bedb0d,5,1767701602452,1.15005,-7.6039505,-5.31195,0.0796125,-0.0561,0.0279125,0.1704821586608886,-0.2169798016548156,-0.4674440002441411,15.4212333,73.9812767,0.12456278,0.5428151564870717,0.0,0.1013137098940711,5.306848365205231e-05
ec1eab38-6478-4922-856a-c33c61bedb0d,5,1767701602463,1.15005,-7.6039505,-5.31195,0.0796125,-0.0561,0.0279125,0.1704821586608886,-0.2169798016548156,-0.4674440002441411,15.4212333,73.9812767,0.12456278,0.5428151564870717,0.0,0.1013137098940711,-0.01468816406266283
ec1eab38-6478-4922-856a-c33c61bedb0d,5,1767701602473,1.3219501,-7.5840006,-5.3500504,0.07755,-0.0928125,0.0947375,0.1611967086791992,-0.3961945176124573,-0.4449182128906255,15.4212333,73.9812767,0.12456278,0.6171763855146779,0.0,0.15363383924936588,0.02375190086236472
ec1eab38-6478-4922-856a-c33c61bedb0d,5,1767701602484,1.3219501,-7.5840006,-5.3500504,0.07755,-0.0928125,0.0947375,0.1611967086791992,-0.3961945176124573,-0.4449182128906255,15.4212333,73.9812767,0.12456278,0.6171763855146779,0.0,0.15363383924936588,0.011550940353133076
ec1eab38-6478-4922-856a-c33c61bedb0d,5,1767701602494,1.3219501,-7.5840006,-5.3500504,0.07755,-0.0928125,0.0947375,0.1611967086791992,-0.3961945176124573,-0.4449182128906255,15.4212333,73.9812767,0.12456278,0.6171763855146779,0.0,0.15363383924936588,0.001664948274164725
ec1eab38-6478-4922-856a-c33c61bedb0d,5,1767701602505,1.22595,-7.79505,-5.427,0.0774125,-0.1038125,0.100237496,0.1724429130554199,-0.2929702997207641,-0.2390790557861333,15.4212333,73.9812767,0.12456278,0.4156043186699369,0.0,0.16375984219841572,0.004638403816979556
ec1eab38-6478-4922-856a-c33c61bedb0d,5,1767701602516,1.22595,-7.79505,-5.427,0.0774125,-0.1038125,0.100237496,0.1724429130554199,-0.2929702997207641,-0.2390790557861333,15.4212333,73.9812767,0.12456278,0.4156043186699369,0.0,0.16375984219841572,0.0004069261240001447
ec1eab38-6478-4922-856a-c33c61bedb0d,5,1767701602526,1.30305,-7.6800003,-5.6950502,0.0669625,-0.1307625,0.093637496,-0.0990033149719238,-0.4586026668548584,-0.1718535995483403,15.4212333,73.9812767,0.12456278,0.4996516007174794,0.0,0.17421477684068598,0.009516781630880409
ec1eab38-6478-4922-856a-c33c61bedb0d,5,1767701602537,1.30305,-7.6800003,-5.6950502,0.0669625,-0.1307625,0.093637496,-0.0990033149719238,-0.4586026668548584,-0.1718535995483403,15.4212333,73.9812767,0.12456278,0.4996516007174794,0.0,0.17421477684068598,0.010829182633662983
ec1eab38-6478-4922-856a-c33c61bedb0d,5,1767701602547,2.01195,-7.5649505,-5.3689504,0.052525,-0.1269125,0.058025,0.3025169372558594,-1.1216022968292236,-0.3891425704956059,15.4212333,73.9812767,0.12456278,1.225128625798607,0.0,0.14910586476141707,-0.010690351392719871
ec1eab38-6478-4922-856a-c33c61bedb0d,5,1767701602558,2.01195,-7.5649505,-5.3689504,0.052525,-0.1269125,0.058025,0.3025169372558594,-1.1216022968292236,-0.3891425704956059,15.4212333,73.9812767,0.12456278,1.225128625798607,0.0,0.14910586476141707,-0.005305366203719675
ec1eab38-6478-4922-856a-c33c61bedb0d,5,1767701602568,1.60905,-7.6420503,-5.274,0.038225,-0.1170125,0.0026125,0.2990732192993164,-0.7233151197433472,-0.4189172363281255,15.4212333,73.9812767,0.12456278,0.8877619071824293,0.0,0.12312554949115963,-0.024635807646408367
ec1eab38-6478-4922-856a-c33c61bedb0d,5,1767701602579,1.60905,-7.6420503,-5.274,0.038225,-0.1170125,0.0026125,0.2990732192993164,-0.7233151197433472,-0.4189172363281255,15.4212333,73.9812767,0.12456278,0.8877619071824293,0.0,0.12312554949115963,-0.01725552432157003
ec1eab38-6478-4922-856a-c33c61bedb0d,5,1767701602589,1.60905,-7.6420503,-5.274,0.038225,-0.1170125,0.0026125,0.2990732192993164,-0.7233151197433472,-0.4189172363281255,15.4212333,73.9812767,0.12456278,0.8877619071824293,0.0,0.12312554949115963,-0.009648345974451385
ec1eab38-6478-4922-856a-c33c61bedb0d,5,1767701602600,1.5139501,-7.7760005,-5.3689504,0.0268125,-0.0836,-0.0782375,0.2517189979553222,-0.6162446737289429,-0.2632337188720708,15.4212333,73.9812767,0.12456278,0.7158295485533851,0.0,0.1175966690110736,-0.007793965549415638
ec1eab38-6478-4922-856a-c33c61bedb0d,5,1767701602610,1.5139501,-7.7760005,-5.3689504,0.0268125,-0.0836,-0.0782375,0.2517189979553222,-0.6162446737289429,-0.2632337188720708,15.4212333,73.9812767,0.12456278,0.7158295485533851,0.0,0.1175966690110736,-0.0010229056275248745
ec1eab38-6478-4922-856a-c33c61bedb0d,5,1767701602621,1.1880001,-7.5649505,-5.7520504,0.0232375,-0.0345125,-0.1508375,-0.2763361930847168,-0.4027433395385742,-0.2450976943969731,15.4212333,73.9812767,0.12456278,0.5464766865566629,0.0,0.15647058978846473,0.043685874999728085
ec1eab38-6478-4922-856a-c33c61bedb0d,5,1767701602631,1.1880001,-7.5649505,-5.7520504,0.0232375,-0.0345125,-0.1508375,-0.2763361930847168,-0.4027433395385742,-0.2450976943969731,15.4212333,73.9812767,0.12456278,0.5464766865566629,0.0,0.15647058978846473,0.04832383117610052
ec1eab38-6478-4922-856a-c33c61bedb0d,5,1767701602642,1.7050501,-7.7179503,-5.84805,-0.0037125,-0.033,-0.0985875,-0.1285672187805175,-0.8314590454101562,-0.0137849426269536,15.4212333,73.9812767,0.12456278,0.8414533252549152,0.0,0.10403017741261426,-0.0008716816341657509
ec1eab38-6478-4922-856a-c33c61bedb0d,5,1767701602653,1.7050501,-7.7179503,-5.84805,-0.0037125,-0.033,-0.0985875,-0.1285672187805175,-0.8314590454101562,-0.0137849426269536,15.4212333,73.9812767,0.12456278,0.8414533252549152,0.0,0.10403017741261426,0.000854880167885437
ec1eab38-6478-4922-856a-c33c61bedb0d,5,1767701602663,2.01195,-7.7569504,-5.5219502,-0.0405625,-0.0023375,-0.0702625,0.2373132705688476,-1.0186665058135986,-0.1344562149047856,15.4212333,73.9812767,0.12456278,1.054550858034401,0.0,0.08116402662972064,-0.021846550819990523
ec1eab38-6478-4922-856a-c33c61bedb0d,5,1767701602674,2.01195,-7.7569504,-5.5219502,-0.0405625,-0.0023375,-0.0702625,0.2373132705688476,-1.0186665058135986,-0.1344562149047856,15.4212333,73.9812767,0.12456278,1.054550858034401,0.0,0.08116402662972064,-0.023193617150810166
ec1eab38-6478-4922-856a-c33c61bedb0d,5,1767701602684,2.01195,-7.7569504,-5.5219502,-0.0405625,-0.0023375,-0.0702625,0.2373132705688476,-1.0186665058135986,-0.1344562149047856,15.4212333,73.9812767,0.12456278,1.054550858034401,0.0,0.08116402662972064,-0.025901801788653932
ec1eab38-6478-4922-856a-c33c61bedb0d,5,1767701602695,1.6480501,-7.6039505,-5.44605,-0.076175,0.048125,-0.051975,0.115304946899414,-0.6784192323684692,-0.3378272628784184,15.4212333,73.9812767,0.12456278,0.7665997294356578,0.0,0.10401945431023948,-0.006867549463683798
ec1eab38-6478-4922-856a-c33c61bedb0d,5,1767701602705,1.6480501,-7.6039505,-5.44605,-0.076175,0.048125,-0.051975,0.115304946899414,-0.6784192323684692,-0.3378272628784184,15.4212333,73.9812767,0.12456278,0.7665997294356578,0.0,0.10401945431023948,-0.01147283294022113
ec1eab38-6478-4922-856a-c33c61bedb0d,5,1767701602716,1.7629501,-7.39305,-5.3880005,-0.0754875,0.0697125,-0.0792,0.0982413291931152,-0.8033251762390137,-0.5287938690185552,15.4212333,73.9812767,0.12456278,0.966750047040436,0.0,0.12973370923742217,0.009231457516057008
ec1eab38-6478-4922-856a-c33c61bedb0d,5,1767701602726,1.7629501,-7.39305,-5.3880005,-0.0754875,0.0697125,-0.0792,0.0982413291931152,-0.8033251762390137,-0.5287938690185552,15.4212333,73.9812767,0.12456278,0.966750047040436,0.0,0.12973370923742217,0.00420672696374009
ec1eab38-6478-4922-856a-c33c61bedb0d,5,1767701602737,1.2070501,-7.5460505,-5.84805,-0.0671,0.0829125,-0.115225,-0.3497638702392578,-0.2884314060211181,-0.1978183364868169,15.4212333,73.9812767,0.12456278,0.4946307058346408,0.0,0.15701494604415847,0.026805417361395193
ec1eab38-6478-4922-856a-c33c61bedb0d,5,1767701602747,1.2070501,-7.5460505,-5.84805,-0.0671,0.0829125,-0.115225,-0.3497638702392578,-0.2884314060211181,-0.1978183364868169,15.4212333,73.9812767,0.12456278,0.4946307058346408,0.0,0.15701494604415847,0.02274986281521637
ec1eab38-6478-4922-856a-c33c61bedb0d,5,1767701602758,1.26495,-7.3740005,-5.427,-0.087725,0.0682,-0.090475,-0.0813307762145996,-0.2680288553237915,-0.5715013122558599,15.4212333,73.9812767,0.12456278,0.6364494578173675,0.0,0.14329215348371313,0.00578328108526838
ec1eab38-6478-4922-856a-c33c61bedb0d,5,1767701602768,1.26495,-7.3740005,-5.427,-0.087725,0.0682,-0.090475,-0.0813307762145996,-0.2680288553237915,-0.5715013122558599,15.4212333,73.9812767,0.12456278,0.6364494578173675,0.0,0.14329215348371313,0.003424047160785989
ec1eab38-6478-4922-856a-c33c61bedb0d,5,1767701602779,1.26495,-7.3740005,-5.427,-0.087725,0.0682,-0.090475,-0.0813307762145996,-0.2680288553237915,-0.5715013122558599,15.4212333,73.9812767,0.12456278,0.6364494578173675,0.0,0.14329215348371313,0.001915390041524459
ec1eab38-6478-4922-856a-c33c61bedb0d,5,1767701602789,1.092,-7.6039505,-5.7520504,-0.0947375,0.0638,-0.06985,-0.2635016441345215,-0.0660550594329834,-0.2170415496826176,15.4212333,73.9812767,0.12456278,0.3477116932559547,0.0,0.1338829952094365,-0.008272625861727154
ec1eab38-6478-4922-856a-c33c61bedb0d,5,1767701602800,1.092,-7.6039505,-5.7520504,-0.0947375,0.0638,-0.06985,-0.2635016441345215,-0.0660550594329834,-0.2170415496826176,15.4212333,73.9812767,0.12456278,0.3477116932559547,0.0,0.1338829952094365,-0.008499900757923371
ec1eab38-6478-4922-856a-c33c61bedb0d,5,1767701602811,0.99705005,-7.5649505,-5.19705,-0.1029875,0.0581625,0.0026125,0.1414470672607422,0.1463610529899597,-0.5801292037963872,15.4212333,73.9812767,0.12456278,0.6147997428158415,0.0,0.11830522692911755,-0.02395725553503778
ec1eab38-6478-4922-856a-c33c61bedb0d,6,1767701602821,0.99705005,-7.5649505,-5.19705,-0.1029875,0.0581625,0.0026125,0.1414470672607422,0.1463610529899597,-0.5801292037963872,15.4212333,73.9812767,0.0,0.6147997428158415,0.0,0.11830522692911755,-0.023691534222451155
ec1eab38-6478-4922-856a-c33c61bedb0d,6,1767701602832,1.57095,-7.8520503,-5.71395,-0.0994125,0.036849998,0.0983125,0.0831847190856933,-0.393852949142456,0.0190290832519526,15.4212333,73.9812767,0.0,0.4029912518243858,0.0,0.1445894711419196,0.0028201166889984313
ec1eab38-6478-4922-856a-c33c61bedb0d,6,1767701602842,1.57095,-7.8520503,-5.71395,-0.0994125,0.036849998,0.0983125,0.0831847190856933,-0.393852949142456,0.0190290832519526,15.4212333,73.9812767,0.0,0.4029912518243858,0.0,0.1445894711419196,0.00284903269014196
ec1eab38-6478-4922-856a-c33c61bedb0d,6,1767701602853,1.57095,-7.8520503,-5.71395,-0.0994125,0.036849998,0.0983125,0.0831847190856933,-0.393852949142456,0.0190290832519526,15.4212333,73.9812767,0.0,0.4029912518243858,0.0,0.1445894711419196,0.0025354779354134606
ec1eab38-6478-4922-856a-c33c61bedb0d,6,1767701602863,1.8769501,-7.5649505,-5.9050503,-0.0955625,0.0363,0.128425,-0.0972723960876464,-0.777512788772583,-0.0628409957885747,15.4212333,73.9812767,0.0,0.786089719114333,0.0,0.1641428098676576,0.02128928419532052
ec1eab38-6478-4922-856a-c33c61bedb0d,6,1767701602873,1.8769501,-7.5649505,-5.9050503,-0.0955625,0.0363,0.128425,-0.0972723960876464,-0.777512788772583,-0.0628409957885747,15.4212333,73.9812767,0.0,0.786089719114333,0.0,0.1641428098676576,0.019841771997895993
ec1eab38-6478-4922-856a-c33c61bedb0d,6,1767701602884,1.8580501,-7.2780004,-6.3079505,-0.0952875,0.0716375,0.087037496,-0.5372581481933594,-0.883751392364502,-0.0559144592285161,15.4212333,73.9812767,0.0,1.0357554093786674,0.0,0.14760475863755212,0.001011066871489356
ec1eab38-6478-4922-856a-c33c61bedb0d,6,1767701602894,1.8580501,-7.2780004,-6.3079505,-0.0952875,0.0716375,0.087037496,-0.5372581481933594,-0.883751392364502,-0.0559144592285161,15.4212333,73.9812767,0.0,1.0357554093786674,0.0,0.14760475863755212,-0.002368900929529525
ec1eab38-6478-4922-856a-c33c61bedb0d,6,1767701602905,2.1460502,-7.1059504,-5.8290005,-0.106837496,0.0798875,0.07865,-0.1434388160705566,-1.0961389541625977,-0.436886367797852,15.4212333,73.9812767,0.0,1.1886820429181204,0.0,0.15486150492553022,0.00013291645982833392
ec1eab38-6478-4922-856a-c33c61bedb0d,6,1767701602915,2.1460502,-7.1059504,-5.8290005,-0.106837496,0.0798875,0.07865,-0.1434388160705566,-1.0961389541625977,-0.436886367797852,15.4212333,73.9812767,0.0,1.1886820429181204,0.0,0.15486150492553022,-0.006320791373047947
ec1eab38-6478-4922-856a-c33c61bedb0d,6,1767701602927,2.1460502,-7.1059504,-5.8290005,-0.106837496,0.0798875,0.07865,-0.1434388160705566,-1.0961389541625977,-0.436886367797852,15.4212333,73.9812767,0.0,1.1886820429181204,0.0,0.15486150492553022,-0.014815621081474011
ec1eab38-6478-4922-856a-c33c61bedb0d,6,1767701602937,1.9729501,-6.9330006,-6.11595,-0.1431375,0.10065,0.029424999,-0.4881949424743652,-0.9983491897583008,-0.4223027801513677,15.4212333,73.9812767,0.0,1.1888545094637015,0.0,0.1774389950726728,-0.0031114313123066675
ec1eab38-6478-4922-856a-c33c61bedb0d,6,1767701602948,1.9729501,-6.9330006,-6.11595,-0.1431375,0.10065,0.029424999,-0.4881949424743652,-0.9983491897583008,-0.4223027801513677,15.4212333,73.9812767,0.0,1.1888545094637015,0.0,0.1774389950726728,-0.0166688011477269
ec1eab38-6478-4922-856a-c33c61bedb0d,6,1767701602958,2.2800002,-6.78,-5.96295,-0.1948375,0.1122,0.0089375,-0.3369665145874023,-1.2748382091522217,-0.5912767028808599,15.4212333,73.9812767,0.0,1.4451183449244862,0.0,0.2250119337113034,0.014416737182413994
ec1eab38-6478-4922-856a-c33c61bedb0d,6,1767701602968,2.2800002,-6.78,-5.96295,-0.1948375,0.1122,0.0089375,-0.3369665145874023,-1.2748382091522217,-0.5912767028808599,15.4212333,73.9812767,0.0,1.4451183449244862,0.0,0.2250119337113034,-0.005159229847205915
ec1eab38-6478-4922-856a-c33c61bedb0d,6,1767701602979,2.4709501,-6.7230005,-5.7330003,-0.2435125,0.13213749,-0.0026125,-0.0992722511291503,-1.4000203609466553,-0.7434840774536138,15.4212333,73.9812767,0.0,1.5882948606403355,0.0,0.27706583888310754,0.024186238796233526
ec1eab38-6478-4922-856a-c33c61bedb0d,6,1767701602989,2.4709501,-6.7230005,-5.7330003,-0.2435125,0.13213749,-0.0026125,-0.0992722511291503,-1.4000203609466553,-0.7434840774536138,15.4212333,73.9812767,0.0,1.5882948606403355,0.0,0.27706583888310754,-0.0015575558269454472
ec1eab38-6478-4922-856a-c33c61bedb0d,6,1767701603000,2.3370001,-6.5119505,-5.9440503,-0.2563,0.19607499,-0.0818125,-0.3744406700134277,-1.3145133256912231,-0.7916474914550786,15.4212333,73.9812767,0.0,1.5795115857463735,0.0,0.3329089618195192,0.02576932587836026
ec1eab38-6478-4922-856a-c33c61bedb0d,6,1767701603012,2.3370001,-6.5119505,-5.9440503,-0.2563,0.19607499,-0.0818125,-0.3744406700134277,-1.3145133256912231,-0.7916474914550786,15.4212333,73.9812767,0.0,1.5795115857463735,0.0,0.3329089618195192,-0.005069422398457734
ec1eab38-6478-4922-856a-c33c61bedb0d,6,1767701603022,2.4709501,-6.8380504,-6.1930504,-0.2655125,0.2393875,-0.1507,-0.3080129623413086,-1.3059980869293213,-0.3538947677612309,15.4212333,73.9812767,0.0,1.3877119638751014,0.0,0.3879610197075216,0.01747252717914589
ec1eab38-6478-4922-856a-c33c61bedb0d,6,1767701603033,2.4709501,-6.8380504,-6.1930504,-0.2655125,0.2393875,-0.1507,-0.3080129623413086,-1.3059980869293213,-0.3538947677612309,15.4212333,73.9812767,0.0,1.3877119638751014,0.0,0.3879610197075216,-0.015854254194717525
ec1eab38-6478-4922-856a-c33c61bedb0d,6,1767701603044,2.4709501,-6.8380504,-6.1930504,-0.2655125,0.2393875,-0.1507,-0.3080129623413086,-1.3059980869293213,-0.3538947677612309,15.4212333,73.9812767,0.0,1.3877119638751014,0.0,0.3879610197075216,-0.048954248263598406
ec1eab38-6478-4922-856a-c33c61bedb0d,6,1767701603054,2.87295,-7.1629505,-6.25005,-0.275825,0.28393748,-0.2168375,-0.0155959129333496,-1.470638394355774,0.0114979171752924,15.4212333,73.9812767,0.0,1.470766032227058,0.0,0.4513517747611063,-0.017240624394962017
ec1eab38-6478-4922-856a-c33c61bedb0d,6,1767701603065,2.87295,-7.1629505,-6.25005,-0.275825,0.28393748,-0.2168375,-0.0155959129333496,-1.470638394355774,0.0114979171752924,15.4212333,73.9812767,0.0,1.470766032227058,0.0,0.4513517747611063,-0.046205393895392126
ec1eab38-6478-4922-856a-c33c61bedb0d,6,1767701603075,2.9880002,-7.1250005,-6.1740003,-0.29645,0.3491125,-0.3146,0.0827302932739257,-1.441338300704956,-0.0259433364868169,15.4212333,73.9812767,0.0,1.443943716081866,0.0,0.5556395415701172,0.03313311710367904
ec1eab38-6478-4922-856a-c33c61bedb0d,6,1767701603086,2.9880002,-7.1250005,-6.1740003,-0.29645,0.3491125,-0.3146,0.0827302932739257,-1.441338300704956,-0.0259433364868169,15.4212333,73.9812767,0.0,1.443943716081866,0.0,0.5556395415701172,0.013422949691521342
ec1eab38-6478-4922-856a-c33c61bedb0d,6,1767701603096,2.12595,-7.0870504,-5.9440503,-0.3254625,0.3661625,-0.330825,0.0284552574157714,-0.463516354560852,-0.330441055297852,15.4212333,73.9812767,0.0,0.569954738243606,0.0,0.5911395739903563,0.0355002097527721
ec1eab38-6478-4922-856a-c33c61bedb0d,6,1767701603107,2.12595,-7.0870504,-5.9440503,-0.3254625,0.3661625,-0.330825,0.0284552574157714,-0.463516354560852,-0.330441055297852,15.4212333,73.9812767,0.0,0.569954738243606,0.0,0.5911395739903563,0.029152515517105872
ec1eab38-6478-4922-856a-c33c61bedb0d,6,1767701603117,2.12595,-7.0870504,-5.9440503,-0.3254625,0.3661625,-0.330825,0.0284552574157714,-0.463516354560852,-0.330441055297852,15.4212333,73.9812767,0.0,0.569954738243606,0.0,0.5911395739903563,0.030343727504091002
ec1eab38-6478-4922-856a-c33c61bedb0d,6,1767701603128,2.8159502,-7.182,-6.4219503,-0.3194125,0.3180375,-0.277475,-0.069580078125,-0.980562686920166,0.1792864227294917,15.4212333,73.9812767,0.0,0.999243809901825,0.0,0.5293057454699505,-0.022652950936408362
ec1eab38-6478-4922-856a-c33c61bedb0d,6,1767701603138,2.8159502,-7.182,-6.4219503,-0.3194125,0.3180375,-0.277475,-0.069580078125,-0.980562686920166,0.1792864227294917,15.4212333,73.9812767,0.0,0.999243809901825,0.0,0.5293057454699505,-0.006419356184271829
ec1eab38-6478-4922-856a-c33c61bedb0d,6,1767701603149,2.49,-7.3549504,-6.1540504,-0.2861375,0.297275,-0.2729375,0.1845045089721679,-0.4666375517845154,0.0852503204345698,15.4212333,73.9812767,0.0,0.5089795042049374,0.0,0.49471403197958713,-0.01795609833953006
ec1eab38-6478-4922-856a-c33c61bedb0d,6,1767701603159,2.49,-7.3549504,-6.1540504,-0.2861375,0.297275,-0.2729375,0.1845045089721679,-0.4666375517845154,0.0852503204345698,15.4212333,73.9812767,0.0,0.5089795042049374,0.0,0.49471403197958713,0.011074355118248553
ec1eab38-6478-4922-856a-c33c61bedb0d,6,1767701603170,1.6480501,-7.2970505,-6.11595,-0.2286625,0.2567125,-0.2311375,-0.0089836120605468,0.4186955690383911,-0.1563754653930669,15.4212333,73.9812767,0.0,0.4470346418287231,0.0,0.414261258710913,-0.03541997618435423
ec1eab38-6478-4922-856a-c33c61bedb0d,6,1767701603180,1.6480501,-7.2970505,-6.11595,-0.2286625,0.2567125,-0.2311375,-0.0089836120605468,0.4186955690383911,-0.1563754653930669,15.4212333,73.9812767,0.0,0.4470346418287231,0.0,0.414261258710913,0.002291388922620019
ec1eab38-6478-4922-856a-c33c61bedb0d,6,1767701603191,1.9920001,-7.2010503,-6.135,-0.1948375,0.21285,-0.1720125,0.0303173065185546,0.1495688557624817,-0.1436582183837895,15.4212333,73.9812767,0.0,0.2095892778694621,0.0,0.33593909278692174,-0.035798585780697285
ec1eab38-6478-4922-856a-c33c61bedb0d,6,1767701603201,1.9920001,-7.2010503,-6.135,-0.1948375,0.21285,-0.1720125,0.0303173065185546,0.1495688557624817,-0.1436582183837895,15.4212333,73.9812767,0.0,0.2095892778694621,0.0,0.33593909278692174,0.005726631705872112
ec1eab38-6478-4922-856a-c33c61bedb0d,6,1767701603212,1.9920001,-7.2010503,-6.135,-0.1948375,0.21285,-0.1720125,0.0303173065185546,0.1495688557624817,-0.1436582183837895,15.4212333,73.9812767,0.0,0.2095892778694621,0.0,0.33593909278692174,0.04737079357789763
ec1eab38-6478-4922-856a-c33c61bedb0d,6,1767701603223,2.088,-6.972,-5.84805,-0.14465,0.1617,-0.1205875,0.1610164642333984,0.0673463344573974,-0.4752383804321294,15.4212333,73.9812767,0.0,0.5062739858563012,0.0,0.24821735969961892,0.0003293232211971899
ec1eab38-6478-4922-856a-c33c61bedb0d,6,1767701603233,2.088,-6.972,-5.84805,-0.14465,0.1617,-0.1205875,0.1610164642333984,0.0673463344573974,-0.4752383804321294,15.4212333,73.9812767,0.0,0.5062739858563012,0.0,0.24821735969961892,0.03908138381706465
ec1eab38-6478-4922-856a-c33c61bedb0d,6,1767701603244,2.29905,-6.7990503,-5.886,-0.0820875,0.0974875,-0.0603625,0.1028361320495605,-0.1430078744888305,-0.5295510864257817,15.4212333,73.9812767,0.0,0.5580778398713333,0.0,0.1410170263434526,-0.03212177564205287
ec1eab38-6478-4922-856a-c33c61bedb0d,6,1767701603254,2.29905,-6.7990503,-5.886,-0.0820875,0.0974875,-0.0603625,0.1028361320495605,-0.1430078744888305,-0.5295510864257817,15.4212333,73.9812767,0.0,0.5580778398713333,0.0,0.1410170263434526,0.0004435050409110829
ec1eab38-6478-4922-856a-c33c61bedb0d,6,1767701603265,1.8970501,-6.8380504,-6.1930504,-0.052249998,0.056649998,-0.0199375,-0.2027883529663086,0.2602221369743347,-0.3970933532714849,15.4212333,73.9812767,0.0,0.5162575015267767,0.0,0.07960394758207665,-0.03235839625644229
ec1eab38-6478-4922-856a-c33c61bedb0d,6,1767701603275,1.8970501,-6.8380504,-6.1930504,-0.052249998,0.056649998,-0.0199375,-0.2027883529663086,0.2602221369743347,-0.3970933532714849,15.4212333,73.9812767,0.0,0.5162575015267767,0.0,0.07960394758207665,-0.008071112803007834
ec1eab38-6478-4922-856a-c33c61bedb0d,6,1767701603286,1.8970501,-6.8380504,-6.1930504,-0.052249998,0.056649998,-0.0199375,-0.2027883529663086,0.2602221369743347,-0.3970933532714849,15.4212333,73.9812767,0.0,0.5162575015267767,0.0,0.07960394758207665,0.011664807805764236
ec1eab38-6478-4922-856a-c33c61bedb0d,6,1767701603296,2.96895,-6.95205,-6.36495,-0.04015,0.0215875,0.0242,0.0176248550415039,-0.6884286403656006,0.0481962585449213,15.4212333,73.9812767,0.0,0.6903386905922283,0.0,0.05161087730556418,-0.00124571102971079
ec1eab38-6478-4922-856a-c33c61bedb0d,6,1767701603306,2.96895,-6.95205,-6.36495,-0.04015,0.0215875,0.0242,0.0176248550415039,-0.6884286403656006,0.0481962585449213,15.4212333,73.9812767,0.0,0.6903386905922283,0.0,0.05161087730556418,0.009185742475960162
ec1eab38-6478-4922-856a-c33c61bedb0d,6,1767701603317,2.835,-6.7230005,-5.9440503,-0.036575,0.011275,0.020075,0.1770892143249511,-0.6119048595428467,-0.4205422973632817,15.4212333,73.9812767,0.0,0.763311188725782,0.0,0.043218767624725256,0.006658578230818093
ec1eab38-6478-4922-856a-c33c61bedb0d,6,1767701603327,2.835,-6.7230005,-5.9440503,-0.036575,0.011275,0.020075,0.1770892143249511,-0.6119048595428467,-0.4205422973632817,15.4212333,73.9812767,0.0,0.763311188725782,0.0,0.043218767624725256,0.008105044207086276
ec1eab38-6478-4922-856a-c33c61bedb0d,6,1767701603338,2.7199502,-6.6649504,-6.078,-0.0375375,-0.0026125,0.0075625,0.0159368515014648,-0.5135930776596069,-0.4026723480224614,15.4212333,73.9812767,0.0,0.6528222212191992,0.0,0.03838073043533695,0.0004938939803477709
ec1eab38-6478-4922-856a-c33c61bedb0d,6,1767701603348,2.7199502,-6.6649504,-6.078,-0.0375375,-0.0026125,0.0075625,0.0159368515014648,-0.5135930776596069,-0.4026723480224614,15.4212333,73.9812767,0.0,0.6528222212191992,0.0,0.03838073043533695,-0.006253408298323298
ec1eab38-6478-4922-856a-c33c61bedb0d,6,1767701603359,2.95005,-6.8760004,-6.1930504,-0.073975,0.0119624995,-0.0149875,0.1159305572509765,-0.6407700777053833,-0.1191773986816411,15.4212333,73.9812767,0.0,0.6619890021319144,0.0,0.07642007050204482,0.02136021328971594
ec1eab38-6478-4922-856a-c33c61bedb0d,6,1767701603369,2.95005,-6.8760004,-6.1930504,-0.073975,0.0119624995,-0.0149875,0.1159305572509765,-0.6407700777053833,-0.1191773986816411,15.4212333,73.9812767,0.0,0.6619890021319144,0.0,0.07642007050204482,0.007612656582426526
ec1eab38-6478-4922-856a-c33c61bedb0d,6,1767701603380,2.95005,-6.8760004,-6.1930504,-0.073975,0.0119624995,-0.0149875,0.1159305572509765,-0.6407700777053833,-0.1191773986816411,15.4212333,73.9812767,0.0,0.6619890021319144,0.0,0.07642007050204482,-0.009025739411370949
ec1eab38-6478-4922-856a-c33c61bedb0d,6,1767701603390,2.95005,-6.8760004,-6.1930504,-0.073975,0.0119624995,-0.0149875,0.1159305572509765,-0.6407700777053833,-0.1191773986816411,15.4212333,73.9812767,0.0,0.6619890021319144,0.0,0.07642007050204482,-0.028037118197295787
ec1eab38-6478-4922-856a-c33c61bedb0d,6,1767701603401,3.0649502,-7.0669503,-6.1740003,-0.08525,0.0479875,-0.0286,0.2764458656311035,-0.6549482345581055,0.0362476730346674,15.4212333,73.9812767,0.0,0.7118239953638381,0.0,0.10192312130350993,-0.02330703579271196
ec1eab38-6478-4922-856a-c33c61bedb0d,6,1767701603411,2.91195,-6.78,-6.0589504,-0.093225,0.1023,-0.0441375,0.1640024185180664,-0.5789124965667725,-0.2812686538696294,15.4212333,73.9812767,0.0,0.664190129112577,0.0,0.1452732237242982,-0.0017893566426456873
ec1eab38-6478-4922-856a-c33c61bedb0d,6,1767701603422,2.91195,-6.78,-6.0589504,-0.093225,0.1023,-0.0441375,0.1640024185180664,-0.5789124965667725,-0.2812686538696294,15.4212333,73.9812767,0.0,0.664190129112577,0.0,0.1452732237242982,-0.02390245567060703
ec1eab38-6478-4922-856a-c33c61bedb0d,6,1767701603433,2.2410002,-6.76095,-5.9440503,-0.1084875,0.1876875,-0.1034,0.0792379379272461,0.0783466845750808,-0.5335879898071294,15.4212333,73.9812767,0.0,0.5450990704975405,0.0,0.2401826290814971,0.04944382022252419
ec1eab38-6478-4922-856a-c33c61bedb0d,6,1767701603443,2.2410002,-6.76095,-5.9440503,-0.1084875,0.1876875,-0.1034,0.0792379379272461,0.0783466845750808,-0.5335879898071294,15.4212333,73.9812767,0.0,0.5450990704975405,0.0,0.2401826290814971,0.02928052500632233
ec1eab38-6478-4922-856a-c33c61bedb0d,6,1767701603454,2.2410002,-6.76095,-5.9440503,-0.1084875,0.1876875,-0.1034,0.0792379379272461,0.0783466845750808,-0.5335879898071294,15.4212333,73.9812767,0.0,0.5450990704975405,0.0,0.2401826290814971,0.011349548549470324
ec1eab38-6478-4922-856a-c33c61bedb0d,6,1767701603465,2.70105,-7.0480504,-6.3079505,-0.1139875,0.19607499,-0.1013375,0.0892829895019531,-0.2065843641757965,0.0241379165649409,15.4212333,73.9812767,0.0,0.2263430819628027,0.0,0.24841062933377087,0.004656949647186291
ec1eab38-6478-4922-856a-c33c61bedb0d,6,1767701603476,2.70105,-7.0480504,-6.3079505,-0.1139875,0.19607499,-0.1013375,0.0892829895019531,-0.2065843641757965,0.0241379165649409,15.4212333,73.9812767,0.0,0.2263430819628027,0.0,0.24841062933377087,-0.006565298660584122
ec1eab38-6478-4922-856a-c33c61bedb0d,6,1767701603487,2.87295,-7.1629505,-6.0010505,-0.09405,0.1837,-0.1233375,0.426699161529541,-0.2637351751327514,-0.0466666793823247,15.4212333,73.9812767,0.0,0.5037918181321419,0.0,0.24042302594853512,-0.021513424739186278
ec1eab38-6478-4922-856a-c33c61bedb0d,6,1767701603498,2.87295,-7.1629505,-6.0010505,-0.09405,0.1837,-0.1233375,0.426699161529541,-0.2637351751327514,-0.0466666793823247,15.4212333,73.9812767,0.0,0.5037918181321419,0.0,0.24042302594853512,-0.02380844936670221
ec1eab38-6478-4922-856a-c33c61bedb0d,6,1767701603508,3.04605,-7.1629505,-5.84805,-0.071225,0.1662375,-0.1398375,0.5697445869445801,-0.3625914752483368,-0.0976415252685551,15.4212333,73.9812767,0.0,0.6823601246645244,0.0,0.2286097842120936,-0.03304407305866613
ec1eab38-6478-4922-856a-c33c61bedb0d,6,1767701603519,3.04605,-7.1629505,-5.84805,-0.071225,0.1662375,-0.1398375,0.5697445869445801,-0.3625914752483368,-0.0976415252685551,15.4212333,73.9812767,0.0,0.6823601246645244,0.0,0.2286097842120936,-0.02562204227880293
ec1eab38-6478-4922-856a-c33c61bedb0d,6,1767701603530,3.1600502,-7.2010503,-6.288,-0.053625,0.1744875,-0.1821875,0.270017147064209,-0.3939889073371887,0.2474302673339838,15.4212333,73.9812767,0.0,0.5379203063711328,0.0,0.2579027208803738,0.015636706726319987
ec1eab38-6478-4922-856a-c33c61bedb0d,6,1767701603544,3.1600502,-7.2010503,-6.288,-0.053625,0.1744875,-0.1821875,0.270017147064209,-0.3939889073371887,0.2474302673339838,15.4212333,73.9812767,0.0,0.5379203063711328,0.0,0.2579027208803738,0.0315448728618805
ec1eab38-6478-4922-856a-c33c61bedb0d,6,1767701603555,2.8540502,-7.2400503,-6.36495,-0.0092124995,0.151525,-0.1560625,0.14788818359375,-0.0325995609164238,0.2425445938110346,15.4212333,73.9812767,0.0,0.2859397247770273,0.0,0.2177158691466644,0.010295991973617188
ec1eab38-6478-4922-856a-c33c61bedb0d,6,1767701603565,2.8540502,-7.2400503,-6.36495,-0.0092124995,0.151525,-0.1560625,0.14788818359375,-0.0325995609164238,0.2425445938110346,15.4212333,73.9812767,0.0,0.2859397247770273,0.0,0.2177158691466644,0.0310577129831163
ec1eab38-6478-4922-856a-c33c61bedb0d,6,1767701603576,2.4709501,-6.8569503,-6.327,0.0188375,0.1269125,-0.112475,-0.1525759696960449,0.221470445394516,-0.1621003723144536,15.4212333,73.9812767,0.0,0.3140145146588262,0.0,0.1706231510888836,0.005104064418061041
ec1eab38-6478-4922-856a-c33c61bedb0d,6,1767701603586,2.4709501,-6.8569503,-6.327,0.0188375,0.1269125,-0.112475,-0.1525759696960449,0.221470445394516,-0.1621003723144536,15.4212333,73.9812767,0.0,0.3140145146588262,0.0,0.1706231510888836,0.025025237075401247
ec1eab38-6478-4922-856a-c33c61bedb0d,6,1767701603597,2.4709501,-6.8569503,-6.327,0.0188375,0.1269125,-0.112475,-0.1525759696960449,0.221470445394516,-0.1621003723144536,15.4212333,73.9812767,0.0,0.3140145146588262,0.0,0.1706231510888836,0.04211056356794554
ec1eab38-6478-4922-856a-c33c61bedb0d,6,1767701603607,1.9159501,-6.4350004,-6.537,0.0198,0.0741125,-0.073699996,-0.6944718360900879,0.603596568107605,-0.4844508743286138,15.4212333,73.9812767,0.0,1.0398618166811275,0.0,0.10637853198202171,-0.009375221104451612
ec1eab38-6478-4922-856a-c33c61bedb0d,6,1767701603618,1.9159501,-6.4350004,-6.537,0.0198,0.0741125,-0.073699996,-0.6944718360900879,0.603596568107605,-0.4844508743286138,15.4212333,73.9812767,0.0,1.0398618166811275,0.0,0.10637853198202171,-0.002149440833621615
ec1eab38-6478-4922-856a-c33c61bedb0d,6,1767701603628,2.12595,-6.34005,-6.6709504,-0.0133375,0.029975,-0.0501875,-0.7945337295532227,0.3875609040260315,-0.4059568023681645,15.4212333,73.9812767,0.0,0.9727734716346932,0.0,0.05995977557913305,-0.04765578261756644
ec1eab38-6478-4922-856a-c33c61bedb0d,6,1767701603639,2.12595,-6.34005,-6.6709504,-0.0133375,0.029975,-0.0501875,-0.7945337295532227,0.3875609040260315,-0.4059568023681645,15.4212333,73.9812767,0.0,0.9727734716346932,0.0,0.05995977557913305,-0.05330567226365206
ec1eab38-6478-4922-856a-c33c61bedb0d,6,1767701603649,1.9159501,-6.3970504,-7.20795,-0.0521125,-0.040975,0.02145,-1.173689365386963,0.5928516387939453,-0.0725102996826176,15.4212333,73.9812767,0.0,1.3169197149420997,0.0,0.06967614929981421,-0.0554703764644267
ec1eab38-6478-4922-856a-c33c61bedb0d,6,1767701603659,1.9159501,-6.3970504,-7.20795,-0.0521125,-0.040975,0.02145,-1.173689365386963,0.5928516387939453,-0.0725102996826176,15.4212333,73.9812767,0.0,1.3169197149420997,0.0,0.06967614929981421,-0.07269145855098677
ec1eab38-6478-4922-856a-c33c61bedb0d,6,1767701603670,2.5090501,-6.35895,-6.2689505,-0.14533749,-0.1266375,0.1332375,-0.2989411354064941,0.0211525820195674,-0.5395341491699224,15.4212333,73.9812767,0.0,0.6171793355943882,0.0,0.23433368049002282,0.0707656491783628
ec1eab38-6478-4922-856a-c33c61bedb0d,6,1767701603680,2.5090501,-6.35895,-6.2689505,-0.14533749,-0.1266375,0.1332375,-0.2989411354064941,0.0211525820195674,-0.5395341491699224,15.4212333,73.9812767,0.0,0.6171793355943882,0.0,0.23433368049002282,0.04726428700888545
ec1eab38-6478-4922-856a-c33c61bedb0d,6,1767701603691,2.5090501,-6.35895,-6.2689505,-0.14533749,-0.1266375,0.1332375,-0.2989411354064941,0.0211525820195674,-0.5395341491699224,15.4212333,73.9812767,0.0,0.6171793355943882,0.0,0.23433368049002282,0.023264602163153018
ec1eab38-6478-4922-856a-c33c61bedb0d,6,1767701603701,3.084,-6.4159503,-6.8820004,-0.19745,-0.1071125,0.11605,-0.5287885665893555,-0.5084534883499146,0.0641750717163081,15.4212333,73.9812767,0.0,0.736383553456088,0.0,0.2528382737171135,0.018988231497231972
ec1eab38-6478-4922-856a-c33c61bedb0d,6,1767701603712,3.084,-6.4159503,-6.8820004,-0.19745,-0.1071125,0.11605,-0.5287885665893555,-0.5084534883499146,0.0641750717163081,15.4212333,73.9812767,0.0,0.736383553456088,0.0,0.2528382737171135,-0.0011417014508828948
ec1eab38-6478-4922-856a-c33c61bedb0d,6,1767701603722,3.7159503,-6.7039504,-6.4800005,-0.2674375,-0.0515625,0.0845625,0.1575665473937988,-0.9848443865776062,0.1773352050781245,15.4212333,73.9812767,0.0,1.0130120717894353,0.0,0.28518822594691734,0.014712237870940554
ec1eab38-6478-4922-856a-c33c61bedb0d,6,1767701603733,3.7159503,-6.7039504,-6.4800005,-0.2674375,-0.0515625,0.0845625,0.1575665473937988,-0.9848443865776062,0.1773352050781245,15.4212333,73.9812767,0.0,1.0130120717894353,0.0,0.28518822594691734,0.002271243966095348
ec1eab38-6478-4922-856a-c33c61bedb0d,6,1767701603743,3.6390002,-6.6649504,-6.4219503,-0.2855875,-0.015125,0.06765,0.2119126319885254,-0.9129757881164552,0.0908560180664057,15.4212333,73.9812767,0.0,0.9416403609138944,0.0,0.2938800916721818,0.002386851345557593
