session_id,window_id,timestamp,accel_x,accel_y,accel_z,gyro_x,gyro_y,gyro_z,linear_accel_x,linear_accel_y,linear_accel_z,latitude,longitude,speed,vibration_intensity,anomaly_score,raw_magnitude,vibration_only
3e9b2e99-0039-4137-8bde-be49cd181e98,3,1767702630634,2.12595,-7.5460505,-5.6179504,0.1794375,0.167475,0.137775,-0.2834119796752929,1.1948195695877075,-0.2436004257202153,15.4211533,73.98118,0.13640139,1.25190148234767,0.0,0.28147405325580194,0.0011506078742257527
3e9b2e99-0039-4137-8bde-be49cd181e98,3,1767702630645,1.8970501,-7.66095,-5.59905,0.1783375,0.1758625,0.1238875,-0.3542304039001465,0.9399439096450806,-0.1855836486816411,15.4211533,73.98118,0.13640139,1.0214768832353138,0.0,0.27942797903708566,-0.0028209027792664414
3e9b2e99-0039-4137-8bde-be49cd181e98,3,1767702630656,1.8970501,-7.66095,-5.59905,0.1783375,0.1758625,0.1238875,-0.3542304039001465,0.9399439096450806,-0.1855836486816411,15.4211533,73.98118,0.13640139,1.0214768832353138,0.0,0.27942797903708566,-0.004987341853527537
3e9b2e99-0039-4137-8bde-be49cd181e98,3,1767702630667,1.57095,-7.5649505,-5.5030503,0.1815,0.1837,0.1282875,-0.3659381866455078,0.6012938022613525,-0.3503747558593755,15.4211533,73.98118,0.13640139,0.786274419415279,0.0,0.28834982687050464,0.0026358692185805793
3e9b2e99-0039-4137-8bde-be49cd181e98,3,1767702630678,1.57095,-7.5649505,-5.5030503,0.1815,0.1837,0.1282875,-0.3659381866455078,0.6012938022613525,-0.3503747558593755,15.4211533,73.98118,0.13640139,0.786274419415279,0.0,0.28834982687050464,0.0031962408328240046
3e9b2e99-0039-4137-8bde-be49cd181e98,3,1767702630689,1.72395,-7.4689503,-5.637,0.177375,0.2058375,0.1049125,-0.1184730529785156,0.685135006904602,-0.3205543136596684,15.4211533,73.98118,0.13640139,0.7656375839612632,0.0,0.29126894734506115,0.009275296916081753
3e9b2e99-0039-4137-8bde-be49cd181e98,3,1767702630700,1.72395,-7.4689503,-5.637,0.177375,0.2058375,0.1049125,-0.1184730529785156,0.685135006904602,-0.3205543136596684,15.4211533,73.98118,0.13640139,0.7656375839612632,0.0,0.29126894734506115,0.015429623852666401
3e9b2e99-0039-4137-8bde-be49cd181e98,3,1767702630711,1.72395,-7.4689503,-5.637,0.177375,0.2058375,0.1049125,-0.1184730529785156,0.685135006904602,-0.3205543136596684,15.4211533,73.98118,0.13640139,0.7656375839612632,0.0,0.29126894734506115,0.024580512373598918
3e9b2e99-0039-4137-8bde-be49cd181e98,3,1767702630722,1.1880001,-7.5079503,-5.5800004,0.15619999,0.198,0.087037496,-0.2493715286254882,0.153902530670166,-0.3849683380126958,15.4211533,73.98118,0.13640139,0.4838106752728295,0.0,0.2667919837362999,0.011866347603989975
3e9b2e99-0039-4137-8bde-be49cd181e98,3,1767702630733,1.1880001,-7.5079503,-5.5800004,0.15619999,0.198,0.087037496,-0.2493715286254882,0.153902530670166,-0.3849683380126958,15.4211533,73.98118,0.13640139,0.4838106752728295,0.0,0.2667919837362999,0.02552645964417099
3e9b2e99-0039-4137-8bde-be49cd181e98,3,1767702630744,1.26495,-7.5649505,-5.5420504,0.1054625,0.15565,0.079475,-0.2509288787841797,0.2146234512329101,-0.3530526733398442,15.4211533,73.98118,0.13640139,0.4833991292704422,0.0,0.20412137818281065,-0.022531551083996786
3e9b2e99-0039-4137-8bde-be49cd181e98,3,1767702630755,1.26495,-7.5649505,-5.5420504,0.1054625,0.15565,0.079475,-0.2509288787841797,0.2146234512329101,-0.3530526733398442,15.4211533,73.98118,0.13640139,0.4833991292704422,0.0,0.20412137818281065,-0.008012929770260139
3e9b2e99-0039-4137-8bde-be49cd181e98,3,1767702630766,1.2070501,-7.623,-5.4079504,0.087037496,0.126775,0.081125,-0.3658351898193359,0.181815505027771,-0.3947911834716802,15.4211533,73.98118,0.13640139,0.5681129663417503,0.0,0.17386400421004347,-0.024854209770636425
3e9b2e99-0039-4137-8bde-be49cd181e98,3,1767702630777,1.2070501,-7.623,-5.4079504,0.087037496,0.126775,0.081125,-0.3658351898193359,0.181815505027771,-0.3947911834716802,15.4211533,73.98118,0.13640139,0.5681129663417503,0.0,0.17386400421004347,-0.013380347252676703
3e9b2e99-0039-4137-8bde-be49cd181e98,3,1767702630789,1.092,-7.5460505,-5.5030503,0.07205,0.072325,0.122099996,-0.2420902252197265,0.032399296760559,-0.4100385284423833,15.4211533,73.98118,0.13640139,0.47727244461074,0.0,0.15915563812884548,-0.019123733100084236
3e9b2e99-0039-4137-8bde-be49cd181e98,3,1767702630799,1.092,-7.5460505,-5.5030503,0.07205,0.072325,0.122099996,-0.2420902252197265,0.032399296760559,-0.4100385284423833,15.4211533,73.98118,0.13640139,0.47727244461074,0.0,0.15915563812884548,-0.012897925919833481
3e9b2e99-0039-4137-8bde-be49cd181e98,3,1767702630810,1.3600501,-7.6039505,-5.427,0.055275,0.015675,0.1519375,-0.2449760437011718,0.3179647922515869,-0.3780847167968755,15.4211533,73.98118,0.13640139,0.5514190096237587,0.0,0.16243778857227156,-0.006008819248043402
3e9b2e99-0039-4137-8bde-be49cd181e98,3,1767702630821,1.3600501,-7.6039505,-5.427,0.055275,0.015675,0.1519375,-0.2449760437011718,0.3179647922515869,-0.3780847167968755,15.4211533,73.98118,0.13640139,0.5514190096237587,0.0,0.16243778857227156,-0.004585718943239374
3e9b2e99-0039-4137-8bde-be49cd181e98,3,1767702630832,1.5330001,-7.5649505,-5.3500504,0.043175,-0.00825,0.16445,-0.2121186256408691,0.5111874341964722,-0.4347510910034184,15.4211533,73.98118,0.13640139,0.7037864842072533,0.0,0.1702232229309503,0.0031083649166399785
3e9b2e99-0039-4137-8bde-be49cd181e98,3,1767702630843,1.5330001,-7.5649505,-5.3500504,0.043175,-0.00825,0.16445,-0.2121186256408691,0.5111874341964722,-0.4347510910034184,15.4211533,73.98118,0.13640139,0.7037864842072533,0.0,0.1702232229309503,0.002293719143192961
3e9b2e99-0039-4137-8bde-be49cd181e98,3,1767702630854,1.5330001,-7.5649505,-5.3500504,0.043175,-0.00825,0.16445,-0.2121186256408691,0.5111874341964722,-0.4347510910034184,15.4211533,73.98118,0.13640139,0.7037864842072533,0.0,0.1702232229309503,0.0015399080898846724
3e9b2e99-0039-4137-8bde-be49cd181e98,3,1767702630865,1.8970501,-7.7179503,-5.427,0.0419375,-0.0650375,0.1722875,-0.1368441581726074,0.8547556400299072,-0.2251897430419926,15.4211533,73.98118,0.13640139,0.8944517584309534,0.0,0.18886930128729232,0.020143656403258964
3e9b2e99-0039-4137-8bde-be49cd181e98,4,1767702630876,1.8970501,-7.7179503,-5.427,0.0419375,-0.0650375,0.1722875,-0.1368441581726074,0.8547556400299072,-0.2251897430419926,15.4211517,73.9811833,0.20743306,0.8944517584309534,0.0,0.18886930128729232,0.021223975735638143
3e9b2e99-0039-4137-8bde-be49cd181e98,4,1767702630887,1.60905,-7.5270004,-5.2540503,0.049775,-0.071775,0.1593625,-0.1939287185668945,0.6337199211120605,-0.5142675018310552,15.4211517,73.9811833,0.20743306,0.8388565728054043,0.0,0.18172949033178407,0.016388718063388374
3e9b2e99-0039-4137-8bde-be49cd181e98,4,1767702630897,1.60905,-7.5270004,-5.2540503,0.049775,-0.071775,0.1593625,-0.1939287185668945,0.6337199211120605,-0.5142675018310552,15.4211517,73.9811833,0.20743306,0.8388565728054043,0.0,0.18172949033178407,0.019685821544411355
3e9b2e99-0039-4137-8bde-be49cd181e98,4,1767702630908,2.184,-7.7569504,-5.21595,0.0567875,-0.0708125,0.14465,-0.2015929222106933,1.225312352180481,-0.2913747406005864,15.4211517,73.9811833,0.20743306,1.27551139005168,0.0,0.17077134657927834,0.012479142359478813
3e9b2e99-0039-4137-8bde-be49cd181e98,4,1767702630919,2.184,-7.7569504,-5.21595,0.0567875,-0.0708125,0.14465,-0.2015929222106933,1.225312352180481,-0.2913747406005864,15.4211517,73.9811833,0.20743306,1.27551139005168,0.0,0.17077134657927834,0.01591423118436784
3e9b2e99-0039-4137-8bde-be49cd181e98,4,1767702630929,2.4709501,-8.178,-5.1589503,0.091575,-0.0411125,0.087175,-0.3919119834899902,1.5187885761260986,0.0459522628784174,15.4211517,73.9811833,0.20743306,1.5692116977125323,0.0,0.13294998648457998,-0.01968080583731167
3e9b2e99-0039-4137-8bde-be49cd181e98,4,1767702630940,2.4709501,-8.178,-5.1589503,0.091575,-0.0411125,0.087175,-0.3919119834899902,1.5187885761260986,0.0459522628784174,15.4211517,73.9811833,0.20743306,1.5692116977125323,0.0,0.13294998648457998,-0.01954534940417743
3e9b2e99-0039-4137-8bde-be49cd181e98,4,1767702630951,2.088,-7.8139505,-4.94805,0.1199,-0.0064625,0.054725,-0.3827919960021972,1.161331057548523,-0.4075761413574224,15.4211517,73.9811833,0.20743306,1.2889289539900648,0.0,0.13195680934021556,-0.023231929152074525
3e9b2e99-0039-4137-8bde-be49cd181e98,4,1767702630962,2.088,-7.8139505,-4.94805,0.1199,-0.0064625,0.054725,-0.3827919960021972,1.161331057548523,-0.4075761413574224,15.4211517,73.9811833,0.20743306,1.2889289539900648,0.0,0.13195680934021556,-0.02923182713983706
3e9b2e99-0039-4137-8bde-be49cd181e98,4,1767702630973,2.088,-7.8139505,-4.94805,0.1199,-0.0064625,0.054725,-0.3827919960021972,1.161331057548523,-0.4075761413574224,15.4211517,73.9811833,0.20743306,1.2889289539900648,0.0,0.13195680934021556,-0.03867341423005164
3e9b2e99-0039-4137-8bde-be49cd181e98,4,1767702630984,1.8010501,-7.8139505,-4.986,0.158125,0.098175,-0.0675125,-0.3805623054504394,0.8617514371871948,-0.4145570373535161,15.4211517,73.9811833,0.20743306,1.029223369848972,0.0,0.19798935301235265,0.014719949426194819
3e9b2e99-0039-4137-8bde-be49cd181e98,4,1767702630995,1.8010501,-7.8139505,-4.986,0.158125,0.098175,-0.0675125,-0.3805623054504394,0.8617514371871948,-0.4145570373535161,15.4211517,73.9811833,0.20743306,1.029223369848972,0.0,0.19798935301235265,-0.0005057894091213747
3e9b2e99-0039-4137-8bde-be49cd181e98,4,1767702631005,1.6669501,-7.6990504,-5.1199503,0.1772375,0.13035,-0.10065,-0.204275369644165,0.6433662176132202,-0.439175186157227,15.4211517,73.9811833,0.20743306,0.805309481345797,0.0,0.24193940647660106,0.026551777902052754
3e9b2e99-0039-4137-8bde-be49cd181e98,4,1767702631016,1.6669501,-7.6990504,-5.1199503,0.1772375,0.13035,-0.10065,-0.204275369644165,0.6433662176132202,-0.439175186157227,15.4211517,73.9811833,0.20743306,0.805309481345797,0.0,0.24193940647660106,0.00912677163512153
3e9b2e99-0039-4137-8bde-be49cd181e98,4,1767702631027,2.0689502,-7.9099503,-5.235,0.1837,0.14093749,-0.108075,-0.1069679260253906,0.9346189498901368,-0.1472812271118169,15.4211517,73.9811833,0.20743306,0.9521798561991732,0.0,0.2555176544047399,0.00597928026766469
3e9b2e99-0039-4137-8bde-be49cd181e98,4,1767702631038,2.0689502,-7.9099503,-5.235,0.1837,0.14093749,-0.108075,-0.1069679260253906,0.9346189498901368,-0.1472812271118169,15.4211517,73.9811833,0.20743306,0.9521798561991732,0.0,0.2555176544047399,-0.008841865308331273
3e9b2e99-0039-4137-8bde-be49cd181e98,4,1767702631049,1.4940001,-7.9099503,-5.1390004,0.185075,0.1769625,-0.14795,-0.2781851291656494,0.3450452089309692,-0.2699657058715825,15.4211517,73.9811833,0.20743306,0.5189649743883176,0.0,0.29573245430836637,0.01951877146668126
3e9b2e99-0039-4137-8bde-be49cd181e98,4,1767702631060,1.4940001,-7.9099503,-5.1390004,0.185075,0.1769625,-0.14795,-0.2781851291656494,0.3450452089309692,-0.2699657058715825,15.4211517,73.9811833,0.20743306,0.5189649743883176,0.0,0.29573245430836637,0.011454502554263335
3e9b2e99-0039-4137-8bde-be49cd181e98,4,1767702631071,1.4940001,-7.9099503,-5.1390004,0.185075,0.1769625,-0.14795,-0.2781851291656494,0.3450452089309692,-0.2699657058715825,15.4211517,73.9811833,0.20743306,0.5189649743883176,0.0,0.29573245430836637,0.0076959506996904774
3e9b2e99-0039-4137-8bde-be49cd181e98,4,1767702631081,1.6860001,-7.9290004,-4.986,0.18425,0.1588125,-0.14135,-0.3218715190887451,0.5015555620193481,-0.3117528533935552,15.4211517,73.9811833,0.20743306,0.6725690285703498,0.0,0.28133484525783503,-0.005979465637439587
3e9b2e99-0039-4137-8bde-be49cd181e98,4,1767702631092,1.6860001,-7.9290004,-4.986,0.18425,0.1588125,-0.14135,-0.3218715190887451,0.5015555620193481,-0.3117528533935552,15.4211517,73.9811833,0.20743306,0.6725690285703498,0.0,0.28133484525783503,-0.0009412775393017988
3e9b2e99-0039-4137-8bde-be49cd181e98,4,1767702631103,1.60905,-7.833,-5.06295,0.1860375,0.1555125,-0.097075,-0.1878104209899902,0.3434007167816162,-0.3535085296630864,15.4211517,73.9811833,0.20743306,0.5274135825546422,0.0,0.26118507745945213,-0.012208655026451
3e9b2e99-0039-4137-8bde-be49cd181e98,4,1767702631114,1.60905,-7.833,-5.06295,0.1860375,0.1555125,-0.097075,-0.1878104209899902,0.3434007167816162,-0.3535085296630864,15.4211517,73.9811833,0.20743306,0.5274135825546422,0.0,0.26118507745945213,-0.00020251611027210888
3e9b2e99-0039-4137-8bde-be49cd181e98,4,1767702631125,1.41795,-7.79505,-5.274,0.18425,0.146575,-0.059675,-0.0132679939270019,0.0474224090576171,-0.2923303222656255,15.4211517,73.9811833,0.20743306,0.2964488857452484,0.0,0.2428855671916304,-0.004265272843573752
3e9b2e99-0039-4137-8bde-be49cd181e98,4,1767702631136,1.41795,-7.79505,-5.274,0.18425,0.146575,-0.059675,-0.0132679939270019,0.0474224090576171,-0.2923303222656255,15.4211517,73.9811833,0.20743306,0.2964488857452484,0.0,0.2428855671916304,0.011220909956786759
3e9b2e99-0039-4137-8bde-be49cd181e98,4,1767702631147,1.437,-7.9290004,-5.2930503,0.1667875,0.132,-0.03355,-0.0325627326965332,0.0230548381805419,-0.1690049743652348,15.4211517,73.9811833,0.20743306,0.1736506218946265,0.0,0.21533154124802528,-0.0005823673430603703
3e9b2e99-0039-4137-8bde-be49cd181e98,4,1767702631157,1.437,-7.9290004,-5.2930503,0.1667875,0.132,-0.03355,-0.0325627326965332,0.0230548381805419,-0.1690049743652348,15.4211517,73.9811833,0.20743306,0.1736506218946265,0.0,0.21533154124802528,0.01452037087649934
3e9b2e99-0039-4137-8bde-be49cd181e98,4,1767702631168,1.26495,-7.8139505,-5.46495,0.12705,0.071775,0.0455125,0.1541271209716797,-0.2269093990325927,-0.1949916458129887,15.4211517,73.9811833,0.20743306,0.3365483423302056,0.0,0.1528552935990442,-0.034280722952304866
3e9b2e99-0039-4137-8bde-be49cd181e98,4,1767702631179,1.26495,-7.8139505,-5.46495,0.12705,0.071775,0.0455125,0.1541271209716797,-0.2269093990325927,-0.1949916458129887,15.4211517,73.9811833,0.20743306,0.3365483423302056,0.0,0.1528552935990442,-0.02263924035317732
3e9b2e99-0039-4137-8bde-be49cd181e98,4,1767702631190,1.26495,-7.8139505,-5.46495,0.12705,0.071775,0.0455125,0.1541271209716797,-0.2269093990325927,-0.1949916458129887,15.4211517,73.9811833,0.20743306,0.3365483423302056,0.0,0.1528552935990442,-0.013446265603400391
3e9b2e99-0039-4137-8bde-be49cd181e98,4,1767702631200,1.59,-7.7179503,-5.3689504,0.0941875,0.0031625,0.1368125,0.2380461692810058,0.1004800796508789,-0.278276977539063,15.4211517,73.9811833,0.20743306,0.3797371477012546,0.0,0.16612930722407168,0.006344252426173126
3e9b2e99-0039-4137-8bde-be49cd181e98,4,1767702631211,1.59,-7.7179503,-5.3689504,0.0941875,0.0031625,0.1368125,0.2380461692810058,0.1004800796508789,-0.278276977539063,15.4211517,73.9811833,0.20743306,0.3797371477012546,0.0,0.16612930722407168,0.010120557392179885
3e9b2e99-0039-4137-8bde-be49cd181e98,4,1767702631222,1.3600501,-7.66095,-5.46495,0.040975,-0.0413875,0.166925,0.310434341430664,-0.1287822723388672,-0.307756958007813,15.4211517,73.9811833,0.20743306,0.4557068127760161,0.0,0.1767931882348695,0.021886814554006297
3e9b2e99-0039-4137-8bde-be49cd181e98,4,1767702631232,1.3600501,-7.66095,-5.46495,0.040975,-0.0413875,0.166925,0.310434341430664,-0.1287822723388672,-0.307756958007813,15.4211517,73.9811833,0.20743306,0.4557068127760161,0.0,0.1767931882348695,0.020473885898241388
3e9b2e99-0039-4137-8bde-be49cd181e98,4,1767702631243,1.45605,-7.7760005,-5.484,-0.0133375,-0.0644875,0.159775,0.2943058013916015,-0.0067873001098632,-0.1884675598144536,15.4211517,73.9811833,0.20743306,0.3495454094648488,0.0,0.17281370659614936,0.012783988639018374
3e9b2e99-0039-4137-8bde-be49cd181e98,4,1767702631254,1.45605,-7.7760005,-5.484,-0.0133375,-0.0644875,0.159775,0.2943058013916015,-0.0067873001098632,-0.1884675598144536,15.4211517,73.9811833,0.20743306,0.3495454094648488,0.0,0.17281370659614936,0.007030283907678093
3e9b2e99-0039-4137-8bde-be49cd181e98,4,1767702631265,1.284,-7.5079503,-5.6179504,-0.0545875,-0.0752125,0.1408,0.5025441646575928,-0.1739968061447143,-0.3603158569335942,15.4211517,73.9811833,0.20743306,0.6423807614941075,0.0,0.16870493564949426,-0.00459476245896274
3e9b2e99-0039-4137-8bde-be49cd181e98,4,1767702631276,1.284,-7.5079503,-5.6179504,-0.0545875,-0.0752125,0.1408,0.5025441646575928,-0.1739968061447143,-0.3603158569335942,15.4211517,73.9811833,0.20743306,0.6423807614941075,0.0,0.16870493564949426,-0.013564256602853998
3e9b2e99-0039-4137-8bde-be49cd181e98,4,1767702631287,1.284,-7.5079503,-5.6179504,-0.0545875,-0.0752125,0.1408,0.5025441646575928,-0.1739968061447143,-0.3603158569335942,15.4211517,73.9811833,0.20743306,0.6423807614941075,0.0,0.16870493564949426,-0.023638901500992567
3e9b2e99-0039-4137-8bde-be49cd181e98,4,1767702631298,1.3410001,-7.182,-5.8099504,-0.0950125,-0.1051875,0.15015,0.8271918296813965,-0.146087646484375,-0.513262329101563,15.4211517,73.9811833,0.20743306,0.984391254543518,0.0,0.20648682237009702,0.003362256185382266
3e9b2e99-0039-4137-8bde-be49cd181e98,4,1767702631308,1.3410001,-7.182,-5.8099504,-0.0950125,-0.1051875,0.15015,0.8271918296813965,-0.146087646484375,-0.513262329101563,15.4211517,73.9811833,0.20743306,0.984391254543518,0.0,0.20648682237009702,-0.007666010812152375
3e9b2e99-0039-4137-8bde-be49cd181e98,4,1767702631319,1.45605,-7.25895,-5.46495,-0.141075,-0.103675,0.1461625,0.5198907852172852,0.1096171140670776,-0.6232810592651372,15.4211517,73.9811833,0.20743306,0.8190125878696319,0.0,0.22806608177510745,0.00315528157456804
3e9b2e99-0039-4137-8bde-be49cd181e98,4,1767702631330,1.45605,-7.25895,-5.46495,-0.141075,-0.103675,0.1461625,0.5198907852172852,0.1096171140670776,-0.6232810592651372,15.4211517,73.9811833,0.20743306,0.8190125878696319,0.0,0.22806608177510745,-0.00676696275959783
3e9b2e99-0039-4137-8bde-be49cd181e98,4,1767702631341,1.7050501,-7.2780004,-5.4079504,-0.1953875,-0.112475,0.108899996,0.4967336654663086,0.4033423662185669,-0.6060329055786138,15.4211517,73.9811833,0.20743306,0.8813088456599333,0.0,0.25037194313670613,0.0070416296860034205
3e9b2e99-0039-4137-8bde-be49cd181e98,4,1767702631352,1.7050501,-7.2780004,-5.4079504,-0.1953875,-0.112475,0.108899996,0.4967336654663086,0.4033423662185669,-0.6060329055786138,15.4211517,73.9811833,0.20743306,0.8813088456599333,0.0,0.25037194313670613,0.0005482477145417533
3e9b2e99-0039-4137-8bde-be49cd181e98,4,1767702631363,1.9729501,-7.1250005,-5.3310003,-0.216425,-0.109175,0.0754875,0.5516111850738525,0.7123678922653198,-0.7399373626708989,15.4211517,73.9811833,0.20743306,1.1658688665992758,0.0,0.25388446960428673,9.860076956412744e-05
3e9b2e99-0039-4137-8bde-be49cd181e98,4,1767702631373,1.9729501,-7.1250005,-5.3310003,-0.216425,-0.109175,0.0754875,0.5516111850738525,0.7123678922653198,-0.7399373626708989,15.4211517,73.9811833,0.20743306,1.1658688665992758,0.0,0.25388446960428673,-0.0009005018587973051
3e9b2e99-0039-4137-8bde-be49cd181e98,4,1767702631384,1.9729501,-7.1250005,-5.3310003,-0.216425,-0.109175,0.0754875,0.5516111850738525,0.7123678922653198,-0.7399373626708989,15.4211517,73.9811833,0.20743306,1.1658688665992758,0.0,0.25388446960428673,0.001358329906058484
3e9b2e99-0039-4137-8bde-be49cd181e98,4,1767702631395,1.9729501,-7.1250005,-5.3310003,-0.216425,-0.109175,0.0754875,0.5516111850738525,0.7123678922653198,-0.7399373626708989,15.4211517,73.9811833,0.20743306,1.1658688665992758,0.0,0.25388446960428673,0.006998606265184095
3e9b2e99-0039-4137-8bde-be49cd181e98,4,1767702631406,1.59,-7.1250005,-5.0820003,-0.2222,-0.094325,0.0441375,0.2181158065795898,0.4468295574188232,-0.9289384460449224,15.4211517,73.9811833,0.20743306,1.0536402588185978,0.0,0.2453938966870407,0.007458965930083393
3e9b2e99-0039-4137-8bde-be49cd181e98,4,1767702631417,1.6860001,-7.7380505,-5.2540503,-0.210925,-0.0661375,-0.0072875,-0.0243568420410156,0.541898250579834,-0.3215394592285161,15.4211517,73.9811833,0.20743306,0.6305827412613368,0.0,0.22117104735362628,-0.004775785209463219
3e9b2e99-0039-4137-8bde-be49cd181e98,4,1767702631428,1.6860001,-7.7380505,-5.2540503,-0.210925,-0.0661375,-0.0072875,-0.0243568420410156,0.541898250579834,-0.3215394592285161,15.4211517,73.9811833,0.20743306,0.6305827412613368,0.0,0.22117104735362628,0.009781095717285264
3e9b2e99-0039-4137-8bde-be49cd181e98,4,1767702631439,1.72395,-7.6039505,-5.3500504,-0.1775125,-0.034925,-0.050049998,0.0898013114929199,0.5577609539031982,-0.3709359741210942,15.4211517,73.9811833,0.20743306,0.6758365587492431,0.0,0.1877110694153384,-0.007192464952125573
3e9b2e99-0039-4137-8bde-be49cd181e98,4,1767702631450,1.72395,-7.6039505,-5.3500504,-0.1775125,-0.034925,-0.050049998,0.0898013114929199,0.5577609539031982,-0.3709359741210942,15.4211517,73.9811833,0.20743306,0.6758365587492431,0.0,0.1877110694153384,0.010451969628775096
3e9b2e99-0039-4137-8bde-be49cd181e98,4,1767702631461,1.59,-7.5079503,-5.3310003,-0.1233375,-0.0088,-0.0715,0.0525918006896972,0.4228565692901611,-0.475364265441895,15.4211517,73.9811833,0.20743306,0.6383923249466131,0.0,0.14283497087985841,-0.016475411481538214
3e9b2e99-0039-4137-8bde-be49cd181e98,4,1767702631472,1.59,-7.5079503,-5.3310003,-0.1233375,-0.0088,-0.0715,0.0525918006896972,0.4228565692901611,-0.475364265441895,15.4211517,73.9811833,0.20743306,0.6383923249466131,0.0,0.14283497087985841,0.0008990258147595299
3e9b2e99-0039-4137-8bde-be49cd181e98,4,1767702631482,1.60905,-7.66095,-5.274,-0.0935,0.0075625,-0.0732875,-0.1055645942687988,0.4526510238647461,-0.3824706649780278,15.4211517,73.9811833,0.20743306,0.6019307622456871,0.0,0.11903990533640389,-0.006939228697177138
3e9b2e99-0039-4137-8bde-be49cd181e98,4,1767702631493,1.60905,-7.66095,-5.274,-0.0935,0.0075625,-0.0732875,-0.1055645942687988,0.4526510238647461,-0.3824706649780278,15.4211517,73.9811833,0.20743306,0.6019307622456871,0.0,0.11903990533640389,0.006849847876480288
3e9b2e99-0039-4137-8bde-be49cd181e98,4,1767702631504,1.30305,-7.66095,-5.46495,-0.0680625,0.026675,-0.0664125,-0.0551347732543945,0.0860354900360107,-0.3103499984741216,15.4211517,73.9811833,0.20743306,0.3267400653737421,0.0,0.09876578196673177,-0.0024080688553538886
3e9b2e99-0039-4137-8bde-be49cd181e98,4,1767702631515,1.30305,-7.66095,-5.46495,-0.0680625,0.026675,-0.0664125,-0.0551347732543945,0.0860354900360107,-0.3103499984741216,15.4211517,73.9811833,0.20743306,0.3267400653737421,0.0,0.09876578196673177,0.005416966821232905
3e9b2e99-0039-4137-8bde-be49cd181e98,4,1767702631526,1.30305,-7.66095,-5.46495,-0.0680625,0.026675,-0.0664125,-0.0551347732543945,0.0860354900360107,-0.3103499984741216,15.4211517,73.9811833,0.20743306,0.3267400653737421,0.0,0.09876578196673177,0.009848512843310044
3e9b2e99-0039-4137-8bde-be49cd181e98,4,1767702631537,1.7629501,-7.79505,-5.5800004,-0.039325,0.066825,-0.023924999,0.0460205078125,0.4725080728530884,-0.0744023895263676,15.4211517,73.9811833,0.20743306,0.4805387410166772,0.0,0.08114457361493743,-0.0067066708223687795
3e9b2e99-0039-4137-8bde-be49cd181e98,4,1767702631548,1.7629501,-7.79505,-5.5800004,-0.039325,0.066825,-0.023924999,0.0460205078125,0.4725080728530884,-0.0744023895263676,15.4211517,73.9811833,0.20743306,0.4805387410166772,0.0,0.08114457361493743,-0.008749887324077235
3e9b2e99-0039-4137-8bde-be49cd181e98,4,1767702631559,1.45605,-7.6039505,-5.1589503,-0.0198,0.0900625,-0.01705,-0.242905855178833,0.2689117193222046,-0.5135684585571294,15.4211517,73.9811833,0.20743306,0.6285454071852966,0.0,0.09377631047471424,-0.0008049182303070885
3e9b2e99-0039-4137-8bde-be49cd181e98,4,1767702631570,1.45605,-7.6039505,-5.1589503,-0.0198,0.0900625,-0.01705,-0.242905855178833,0.2689117193222046,-0.5135684585571294,15.4211517,73.9811833,0.20743306,0.6285454071852966,0.0,0.09377631047471424,-0.0074955854941539165
3e9b2e99-0039-4137-8bde-be49cd181e98,4,1767702631580,1.9350001,-7.8520503,-5.2540503,0.0444125,0.099825,0.0055,-0.1981663703918457,0.6821531057357788,-0.192339477539063,15.4211517,73.9811833,0.20743306,0.7359329077023574,0.0,0.10939721560099233,0.00019408387826845336
3e9b2e99-0039-4137-8bde-be49cd181e98,4,1767702631591,1.9350001,-7.8520503,-5.2540503,0.0444125,0.099825,0.0055,-0.1981663703918457,0.6821531057357788,-0.192339477539063,15.4211517,73.9811833,0.20743306,0.7359329077023574,0.0,0.10939721560099233,-0.008152566461954058
3e9b2e99-0039-4137-8bde-be49cd181e98,4,1767702631602,2.0310001,-7.9870505,-5.2540503,0.08195,0.0972125,0.0133375,-0.2336182594299316,0.7449395656585693,-0.067644653320313,15.4211517,73.9811833,0.20743306,0.7836378288121842,0.0,0.12784350418578175,0.002350020674822142
3e9b2e99-0039-4137-8bde-be49cd181e98,4,1767702631613,2.0310001,-7.9870505,-5.2540503,0.08195,0.0972125,0.0133375,-0.2336182594299316,0.7449395656585693,-0.067644653320313,15.4211517,73.9811833,0.20743306,0.7836378288121842,0.0,0.12784350418578175,-0.0044484214907716535
3e9b2e99-0039-4137-8bde-be49cd181e98,4,1767702631624,1.743,-7.833,-5.2540503,0.1137125,0.09185,0.0198,-0.1873631477355957,0.4268361330032348,-0.2297254180908208,15.4211517,73.9811833,0.20743306,0.519680479990877,0.0,0.14750930532088474,0.0101674093714392
3e9b2e99-0039-4137-8bde-be49cd181e98,4,1767702631635,1.743,-7.833,-5.2540503,0.1137125,0.09185,0.0198,-0.1873631477355957,0.4268361330032348,-0.2297254180908208,15.4211517,73.9811833,0.20743306,0.519680479990877,0.0,0.14750930532088474,0.007280065588326411
3e9b2e99-0039-4137-8bde-be49cd181e98,4,1767702631646,1.743,-7.833,-5.2540503,0.1137125,0.09185,0.0198,-0.1873631477355957,0.4268361330032348,-0.2297254180908208,15.4211517,73.9811833,0.20743306,0.519680479990877,0.0,0.14750930532088474,0.006749511746163122
3e9b2e99-0039-4137-8bde-be49cd181e98,4,1767702631657,1.59,-7.7569504,-5.31195,0.130075,0.0814,0.0204875,-0.1057028770446777,0.2423125505447387,-0.2787175750732427,15.4211517,73.9811833,0.20743306,0.3841509560338585,0.0,0.15480698718484898,0.01583974366558833
3e9b2e99-0039-4137-8bde-be49cd181e98,4,1767702631668,1.59,-7.7569504,-5.31195,0.130075,0.0814,0.0204875,-0.1057028770446777,0.2423125505447387,-0.2787175750732427,15.4211517,73.9811833,0.20743306,0.3841509560338585,0.0,0.15480698718484898,0.01971037611544893
3e9b2e99-0039-4137-8bde-be49cd181e98,4,1767702631679,1.0350001,-7.4689503,-5.31195,0.109037496,0.0704,0.0160875,-0.0476107597351074,-0.3140453100204468,-0.5919547653198247,15.4211517,73.9811833,0.20743306,0.6717899116340178,0.0,0.1307828092304184,0.00121744032925262
3e9b2e99-0039-4137-8bde-be49cd181e98,4,1767702631690,1.0350001,-7.4689503,-5.31195,0.109037496,0.0704,0.0160875,-0.0476107597351074,-0.3140453100204468,-0.5919547653198247,15.4211517,73.9811833,0.20743306,0.6717899116340178,0.0,0.1307828092304184,0.007875261801822962
3e9b2e99-0039-4137-8bde-be49cd181e98,4,1767702631701,1.3219501,-7.4500504,-5.44605,0.0763125,0.023375,0.0066,0.1591372489929199,-0.0914998054504394,-0.4892392730712895,15.4211517,73.9811833,0.20743306,0.5225437251846267,0.0,0.08008463199172486,-0.03562433799446406
3e9b2e99-0039-4137-8bde-be49cd181e98,4,1767702631712,1.3219501,-7.4500504,-5.44605,0.0763125,0.023375,0.0066,0.1591372489929199,-0.0914998054504394,-0.4892392730712895,15.4211517,73.9811833,0.20743306,0.5225437251846267,0.0,0.08008463199172486,-0.02845861785619274
3e9b2e99-0039-4137-8bde-be49cd181e98,4,1767702631723,0.90105003,-7.3159504,-5.21595,0.061325,-0.0320375,0.022824999,-0.0298471450805664,-0.4326421022415161,-0.7904029464721685,15.4211517,73.9811833,0.20743306,0.9015580172641716,0.0,0.07285696679522144,-0.02906086747079251
3e9b2e99-0039-4137-8bde-be49cd181e98,4,1767702631734,0.90105003,-7.3159504,-5.21595,0.061325,-0.0320375,0.022824999,-0.0298471450805664,-0.4326421022415161,-0.7904029464721685,15.4211517,73.9811833,0.20743306,0.9015580172641716,0.0,0.07285696679522144,-0.023380061740780146
3e9b2e99-0039-4137-8bde-be49cd181e98,4,1767702631745,1.4749501,-7.4890504,-5.5420504,0.049225,-0.0886875,0.0749375,0.2756562232971191,0.0327262878417968,-0.3813911056518559,15.4211517,73.9811833,0.20743306,0.4717165874004013,0.0,0.1261118637856883,0.034326839691460415
3e9b2e99-0039-4137-8bde-be49cd181e98,4,1767702631756,1.4749501,-7.4890504,-5.5420504,0.049225,-0.0886875,0.0749375,0.2756562232971191,0.0327262878417968,-0.3813911056518559,15.4211517,73.9811833,0.20743306,0.4717165874004013,0.0,0.1261118637856883,0.03738433740625721
3e9b2e99-0039-4137-8bde-be49cd181e98,4,1767702631767,1.9159501,-7.5840006,-5.59905,0.0180125,-0.081675,0.0435875,0.3816814422607422,0.4592946767807007,-0.2089238739013676,15.4211517,73.9811833,0.20743306,0.6326780449575307,0.0,0.09431397530323912,0.0071870415311764205
3e9b2e99-0039-4137-8bde-be49cd181e98,4,1767702631778,1.9159501,-7.5840006,-5.59905,0.0180125,-0.081675,0.0435875,0.3816814422607422,0.4592946767807007,-0.2089238739013676,15.4211517,73.9811833,0.20743306,0.6326780449575307,0.0,0.09431397530323912,0.0073497821346180945
3e9b2e99-0039-4137-8bde-be49cd181e98,4,1767702631789,1.9159501,-7.5840006,-5.59905,0.0180125,-0.081675,0.0435875,0.3816814422607422,0.4592946767807007,-0.2089238739013676,15.4211517,73.9811833,0.20743306,0.6326780449575307,0.0,0.09431397530323912,0.006153216143444085
3e9b2e99-0039-4137-8bde-be49cd181e98,4,1767702631800,1.6669501,-7.5649505,-5.5609503,0.0009625,-0.081125,0.0127875,0.295814037322998,0.2412629127502441,-0.281847534179688,15.4211517,73.9811833,0.20743306,0.4745016019669842,0.0,0.08213228468452585,-0.008463734998628921
3e9b2e99-0039-4137-8bde-be49cd181e98,4,1767702631811,1.6669501,-7.5649505,-5.5609503,0.0009625,-0.081125,0.0127875,0.295814037322998,0.2412629127502441,-0.281847534179688,15.4211517,73.9811833,0.20743306,0.4745016019669842,0.0,0.08213228468452585,-0.011985894441406483
3e9b2e99-0039-4137-8bde-be49cd181e98,4,1767702631822,1.6860001,-7.7569504,-5.7330003,-0.023924999,-0.091575,-0.0264,0.3097419738769531,0.2253315448760986,-0.0256496047973637,15.4211517,73.9811833,0.20743306,0.3838909971902197,0.0,0.09826162120660335,-0.0002873834674974486
3e9b2e99-0039-4137-8bde-be49cd181e98,4,1767702631833,1.6860001,-7.7569504,-5.7330003,-0.023924999,-0.091575,-0.0264,0.3097419738769531,0.2253315448760986,-0.0256496047973637,15.4211517,73.9811833,0.20743306,0.3838909971902197,0.0,0.09826162120660335,-0.0054228568028871025
3e9b2e99-0039-4137-8bde-be49cd181e98,4,1767702631844,1.26495,-7.431,-5.5609503,-0.058025,-0.0881375,-0.032175,0.242556095123291,-0.1353554725646972,-0.4469400024414067,15.4211517,73.9811833,0.20743306,0.526222319003096,0.0,0.11031930998809773,0.0010252285475024383
3e9b2e99-0039-4137-8bde-be49cd181e98,4,1767702631855,1.26495,-7.431,-5.5609503,-0.058025,-0.0881375,-0.032175,0.242556095123291,-0.1353554725646972,-0.4469400024414067,15.4211517,73.9811833,0.20743306,0.526222319003096,0.0,0.11031930998809773,-0.0048020039429139075
3e9b2e99-0039-4137-8bde-be49cd181e98,4,1767702631866,1.5330001,-7.3549504,-5.46495,-0.087725,-0.08525,-0.0185625,0.2572252750396728,0.1532853841781616,-0.5244508361816411,15.4211517,73.9811833,0.20743306,0.6039121878994532,0.0,0.12372471269415015,0.0028373581679206963
3e9b2e99-0039-4137-8bde-be49cd181e98,4,1767702631876,1.5330001,-7.3549504,-5.46495,-0.087725,-0.08525,-0.0185625,0.2572252750396728,0.1532853841781616,-0.5244508361816411,15.4211517,73.9811833,0.20743306,0.6039121878994532,0.0,0.12372471269415015,-0.0025741398570116544
3e9b2e99-0039-4137-8bde-be49cd181e98,5,1767702631887,1.5330001,-7.3549504,-5.46495,-0.087725,-0.08525,-0.0185625,0.2572252750396728,0.1532853841781616,-0.5244508361816411,15.421155,73.9811817,0.20228583,0.6039121878994532,0.0,0.12372471269415015,-0.007335132690035705
3e9b2e99-0039-4137-8bde-be49cd181e98,5,1767702631898,1.3410001,-7.4500504,-5.21595,-0.1144,-0.0812625,0.0017875,-0.0575857162475585,0.0542595386505126,-0.6175342178344732,15.421155,73.9811817,0.20228583,0.6225823017455165,0.0,0.14033584382651498,0.0054489060697628065
3e9b2e99-0039-4137-8bde-be49cd181e98,5,1767702631909,1.3410001,-7.4500504,-5.21595,-0.1144,-0.0812625,0.0017875,-0.0575857162475585,0.0542595386505126,-0.6175342178344732,15.421155,73.9811817,0.20228583,0.6225823017455165,0.0,0.14033584382651498,0.0028096093365115662
3e9b2e99-0039-4137-8bde-be49cd181e98,5,1767702631919,1.5139501,-7.4689503,-5.637,-0.1208625,-0.0848375,0.039325,0.2697963714599609,0.1118091344833374,-0.3354163742065434,15.421155,73.9811817,0.20228583,0.4447420698480618,0.0,0.15281230623709596,0.014042105161529223
3e9b2e99-0039-4137-8bde-be49cd181e98,5,1767702631930,1.5139501,-7.4689503,-5.637,-0.1208625,-0.0848375,0.039325,0.2697963714599609,0.1118091344833374,-0.3354163742065434,15.421155,73.9811817,0.20228583,0.4447420698480618,0.0,0.15281230623709596,0.0143395934008717
3e9b2e99-0039-4137-8bde-be49cd181e98,5,1767702631941,1.8390001,-7.5460505,-5.6179504,-0.1150875,-0.0433125,0.0232375,0.2568273544311523,0.450311541557312,-0.238298950195313,15.421155,73.9811817,0.20228583,0.5705498787205338,0.0,0.12514426362702366,-0.011416780861932449
3e9b2e99-0039-4137-8bde-be49cd181e98,5,1767702631951,1.8390001,-7.5460505,-5.6179504,-0.1150875,-0.0433125,0.0232375,0.2568273544311523,0.450311541557312,-0.238298950195313,15.421155,73.9811817,0.20228583,0.5705498787205338,0.0,0.12514426362702366,-0.007900030830779054
3e9b2e99-0039-4137-8bde-be49cd181e98,5,1767702631962,1.41795,-7.5270004,-5.6179504,-0.1082125,-0.0207625,0.0204875,0.1392879486083984,0.0641430616378784,-0.3124127960205083,15.421155,73.9811817,0.20228583,0.3480189938798861,0.0,0.11207481527421762,-0.015943601714463903
3e9b2e99-0039-4137-8bde-be49cd181e98,5,1767702631973,1.41795,-7.5270004,-5.6179504,-0.1082125,-0.0207625,0.0204875,0.1392879486083984,0.0641430616378784,-0.3124127960205083,15.421155,73.9811817,0.20228583,0.3480189938798861,0.0,0.11207481527421762,-0.00959348082919844
3e9b2e99-0039-4137-8bde-be49cd181e98,5,1767702631984,1.41795,-7.5270004,-5.6179504,-0.1082125,-0.0207625,0.0204875,0.1392879486083984,0.0641430616378784,-0.3124127960205083,15.421155,73.9811817,0.20228583,0.3480189938798861,0.0,0.11207481527421762,-0.0021921378839400616
3e9b2e99-0039-4137-8bde-be49cd181e98,5,1767702631994,1.437,-7.431,-5.2540503,-0.10065,0.0171875,-0.0504625,-0.0980191230773925,0.189805269241333,-0.5989099121093755,15.421155,73.9811817,0.20228583,0.6358670234754243,0.0,0.11389599010720264,0.007724826639274791
3e9b2e99-0039-4137-8bde-be49cd181e98,5,1767702632005,1.437,-7.431,-5.2540503,-0.10065,0.0171875,-0.0504625,-0.0980191230773925,0.189805269241333,-0.5989099121093755,15.421155,73.9811817,0.20228583,0.6358670234754243,0.0,0.11389599010720264,0.016084107792800634
3e9b2e99-0039-4137-8bde-be49cd181e98,5,1767702632016,0.9580501,-7.14405,-5.676,-0.073975,0.0105875,-0.0614625,0.2536959648132324,-0.4037104845046997,-0.6478524780273442,15.421155,73.9811817,0.20228583,0.804398303794648,0.0,0.09675760790501178,0.007080149465116546
3e9b2e99-0039-4137-8bde-be49cd181e98,5,1767702632027,0.9580501,-7.14405,-5.676,-0.073975,0.0105875,-0.0614625,0.2536959648132324,-0.4037104845046997,-0.6478524780273442,15.421155,73.9811817,0.20228583,0.804398303794648,0.0,0.09675760790501178,0.014469594330229561
3e9b2e99-0039-4137-8bde-be49cd181e98,5,1767702632037,1.3600501,-7.5270004,-5.8099504,-0.0611875,-0.0165,-0.02915,0.1958966255187988,-0.0588897466659545,-0.2069182968139653,15.421155,73.9811817,0.20228583,0.2909616327085498,0.0,0.06975587900851082,-0.006404769752317837
3e9b2e99-0039-4137-8bde-be49cd181e98,5,1767702632048,1.3600501,-7.5270004,-5.8099504,-0.0611875,-0.0165,-0.02915,0.1958966255187988,-0.0588897466659545,-0.2069182968139653,15.421155,73.9811817,0.20228583,0.2909616327085498,0.0,0.06975587900851082,-0.0020111463100576854
3e9b2e99-0039-4137-8bde-be49cd181e98,5,1767702632059,1.7820001,-7.5649505,-5.7330003,-0.0468875,-0.043175,-0.005225,0.1966338157653808,0.362550139427185,-0.1611047363281255,15.421155,73.9811817,0.20228583,0.4427891113933132,0.0,0.06395169197331686,-0.005535175521016287
3e9b2e99-0039-4137-8bde-be49cd181e98,5,1767702632070,1.7820001,-7.5649505,-5.7330003,-0.0468875,-0.043175,-0.005225,0.1966338157653808,0.362550139427185,-0.1611047363281255,15.421155,73.9811817,0.20228583,0.4427891113933132,0.0,0.06395169197331686,-0.0056108428696862046
3e9b2e99-0039-4137-8bde-be49cd181e98,5,1767702632080,2.12595,-7.66095,-5.8669505,-0.0433125,-0.0666875,0.013475,0.3033418655395508,0.6607215404510498,0.0440534973144526,15.421155,73.9811817,0.20228583,0.7283611412140667,0.0,0.08065216015395991,0.008591495615970274
3e9b2e99-0039-4137-8bde-be49cd181e98,5,1767702632091,2.12595,-7.66095,-5.8669505,-0.0433125,-0.0666875,0.013475,0.3033418655395508,0.6607215404510498,0.0440534973144526,15.421155,73.9811817,0.20228583,0.7283611412140667,0.0,0.08065216015395991,0.0038052894736400663
3e9b2e99-0039-4137-8bde-be49cd181e98,5,1767702632102,2.12595,-7.66095,-5.8669505,-0.0433125,-0.0666875,0.013475,0.3033418655395508,0.6607215404510498,0.0440534973144526,15.421155,73.9811817,0.20228583,0.7283611412140667,0.0,0.08065216015395991,-0.0029265156530966503
3e9b2e99-0039-4137-8bde-be49cd181e98,5,1767702632113,2.2410002,-7.5460505,-5.5609503,-0.05115,-0.0559625,-0.028875,0.1550512313842773,0.856669545173645,-0.2114997482299809,15.421155,73.9811817,0.20228583,0.895910563328252,0.0,0.08112884524785251,-0.010591512845952398
3e9b2e99-0039-4137-8bde-be49cd181e98,5,1767702632124,2.2410002,-7.5460505,-5.5609503,-0.05115,-0.0559625,-0.028875,0.1550512313842773,0.856669545173645,-0.2114997482299809,15.421155,73.9811817,0.20228583,0.895910563328252,0.0,0.08112884524785251,-0.019452441596451913
3e9b2e99-0039-4137-8bde-be49cd181e98,5,1767702632135,1.8010501,-7.623,-5.7330003,-0.0506,-0.0430375,-0.0583,0.125281810760498,0.3860292434692383,-0.1117272949218755,15.421155,73.9811817,0.20228583,0.420947855857969,0.0,0.08838255713798962,-0.020994035562892727
3e9b2e99-0039-4137-8bde-be49cd181e98,5,1767702632145,1.8010501,-7.623,-5.7330003,-0.0506,-0.0430375,-0.0583,0.125281810760498,0.3860292434692383,-0.1117272949218755,15.421155,73.9811817,0.20228583,0.420947855857969,0.0,0.08838255713798962,-0.028923196101384045
3e9b2e99-0039-4137-8bde-be49cd181e98,5,1767702632156,1.7820001,-7.3740005,-5.6950502,-0.0567875,-0.0097624995,-0.132275,0.224987506866455,0.3627457618713379,-0.3335652923583989,15.421155,73.9811817,0.20228583,0.5417284100614853,0.0,0.14428029033009845,0.020639102754118867
3e9b2e99-0039-4137-8bde-be49cd181e98,5,1767702632167,1.7820001,-7.3740005,-5.6950502,-0.0567875,-0.0097624995,-0.132275,0.224987506866455,0.3627457618713379,-0.3335652923583989,15.421155,73.9811817,0.20228583,0.5417284100614853,0.0,0.14428029033009845,0.01646439512986283
3e9b2e99-0039-4137-8bde-be49cd181e98,5,1767702632178,1.5139501,-7.3740005,-5.6950502,-0.052249998,0.0089375,-0.1544125,0.1441693305969238,0.0750124454498291,-0.3720393753051763,15.421155,73.9811817,0.20228583,0.405986403263206,0.0,0.1632579595410282,0.03376052315436148
3e9b2e99-0039-4137-8bde-be49cd181e98,5,1767702632188,1.5139501,-7.3740005,-5.6950502,-0.052249998,0.0089375,-0.1544125,0.1441693305969238,0.0750124454498291,-0.3720393753051763,15.421155,73.9811817,0.20228583,0.405986403263206,0.0,0.1632579595410282,0.034621982047527936
3e9b2e99-0039-4137-8bde-be49cd181e98,5,1767702632199,0.9580501,-7.0870504,-5.3310003,-0.050875,-0.0037125,-0.1188,-0.1016473770141601,-0.3964312076568603,-0.8995442962646489,15.421155,73.9811817,0.20228583,0.988266073788025,0.0,0.1292883919044939,0.0038112721996516174
3e9b2e99-0039-4137-8bde-be49cd181e98,5,1767702632210,0.9580501,-7.0870504,-5.3310003,-0.050875,-0.0037125,-0.1188,-0.1016473770141601,-0.3964312076568603,-0.8995442962646489,15.421155,73.9811817,0.20228583,0.988266073788025,0.0,0.1292883919044939,0.00875289987334732
3e9b2e99-0039-4137-8bde-be49cd181e98,5,1767702632221,0.9580501,-7.0870504,-5.3310003,-0.050875,-0.0037125,-0.1188,-0.1016473770141601,-0.3964312076568603,-0.8995442962646489,15.421155,73.9811817,0.20228583,0.988266073788025,0.0,0.1292883919044939,0.014756754673584142
3e9b2e99-0039-4137-8bde-be49cd181e98,5,1767702632232,1.131,-7.2780004,-5.7709503,-0.040425,0.008525,-0.080025,0.1318931579589843,-0.366182804107666,-0.4611573791503911,15.421155,73.9811817,0.20228583,0.6034498980739035,0.0,0.09006029577455317,-0.018240906659942928
3e9b2e99-0039-4137-8bde-be49cd181e98,5,1767702632243,1.131,-7.2780004,-5.7709503,-0.040425,0.008525,-0.080025,0.1318931579589843,-0.366182804107666,-0.4611573791503911,15.421155,73.9811817,0.20228583,0.6034498980739035,0.0,0.09006029577455317,-0.012630246216027704
3e9b2e99-0039-4137-8bde-be49cd181e98,5,1767702632254,1.8580501,-7.66095,-5.7910504,-0.0686125,-0.0,-0.0100375,0.0526556968688964,0.3122162818908691,-0.0335727310180669,15.421155,73.9811817,0.20228583,0.3184003099221469,0.0,0.06934281911272429,-0.029112719003784922
3e9b2e99-0039-4137-8bde-be49cd181e98,5,1767702632264,1.8580501,-7.66095,-5.7910504,-0.0686125,-0.0,-0.0100375,0.0526556968688964,0.3122162818908691,-0.0335727310180669,15.421155,73.9811817,0.20228583,0.3184003099221469,0.0,0.06934281911272429,-0.026837359015152842
3e9b2e99-0039-4137-8bde-be49cd181e98,5,1767702632275,2.6820002,-7.5840006,-6.2310004,-0.0715,0.017324999,-0.0125124995,0.5884799957275391,0.9817525148391724,0.3006595993041987,15.421155,73.9811817,0.20228583,1.1834453516822334,0.0,0.07462551999207444,-0.021602612828486696
3e9b2e99-0039-4137-8bde-be49cd181e98,5,1767702632286,2.6820002,-7.5840006,-6.2310004,-0.0715,0.017324999,-0.0125124995,0.5884799957275391,0.9817525148391724,0.3006595993041987,15.421155,73.9811817,0.20228583,1.1834453516822334,0.0,0.07462551999207444,-0.02410921689056787
3e9b2e99-0039-4137-8bde-be49cd181e98,5,1767702632297,2.088,-7.25895,-5.71395,-0.082225,0.04455,-0.0312125,0.2393913269042968,0.5419701337814331,-0.3574710464477544,15.421155,73.9811817,0.20228583,0.6919720965158328,0.0,0.09858941769404057,-0.005049939410601251
3e9b2e99-0039-4137-8bde-be49cd181e98,5,1767702632308,2.088,-7.25895,-5.71395,-0.082225,0.04455,-0.0312125,0.2393913269042968,0.5419701337814331,-0.3574710464477544,15.421155,73.9811817,0.20228583,0.6919720965158328,0.0,0.09858941769404057,-0.012161057027280405
