session_id,window_id,timestamp,accel_x,accel_y,accel_z,gyro_x,gyro_y,gyro_z,linear_accel_x,linear_accel_y,linear_accel_z,latitude,longitude,speed,vibration_intensity,anomaly_score,raw_magnitude,vibration_only
338296dd-d04e-4244-ab81-9044ef46b13e,6,1767702548192,2.35605,-7.66095,-5.274,-0.0325875,0.012375,-0.1093125,-0.2042798995971679,0.0782003402709961,-0.2179008102416997,15.4211133,73.98115,0.0,0.3087496294765677,0.0,0.11473582020232392,0.0030109990099213826
338296dd-d04e-4244-ab81-9044ef46b13e,6,1767702548203,2.35605,-7.6420503,-5.274,-0.0331375,0.039325,-0.0636625,-0.2015807628631591,0.0588886737823486,-0.2327933883666997,15.4211133,73.98115,0.0,0.3135210384066533,0.0,0.0818380317303636,-0.01643586852786008
338296dd-d04e-4244-ab81-9044ef46b13e,6,1767702548214,2.35605,-7.6420503,-5.274,-0.0331375,0.039325,-0.0636625,-0.2015807628631591,0.0588886737823486,-0.2327933883666997,15.4211133,73.98115,0.0,0.3135210384066533,0.0,0.0818380317303636,-0.006573158616355266
338296dd-d04e-4244-ab81-9044ef46b13e,6,1767702548226,2.35605,-7.6039505,-5.3880005,-0.0312125,0.0446875,-0.0050875,-0.1037461757659912,-0.0015835762023925,-0.197985229492188,15.4211133,73.98115,0.0,0.22352612329822,0.0,0.05474555204534885,-0.028053840276670513
338296dd-d04e-4244-ab81-9044ef46b13e,6,1767702548237,2.35605,-7.6039505,-5.3880005,-0.0312125,0.0446875,-0.0050875,-0.1037461757659912,-0.0015835762023925,-0.197985229492188,15.4211133,73.98115,0.0,0.22352612329822,0.0,0.05474555204534885,-0.027079666814184066
338296dd-d04e-4244-ab81-9044ef46b13e,6,1767702548248,2.26005,-7.5079503,-5.274,-0.0367125,0.035475,0.086075,-0.1599762439727783,-0.04801607131958,-0.3620181655883794,15.4211133,73.98115,0.0,0.3986917279761146,0.0,0.10007591571527087,0.014528216279203405
338296dd-d04e-4244-ab81-9044ef46b13e,6,1767702548259,2.26005,-7.5079503,-5.274,-0.0367125,0.035475,0.086075,-0.1599762439727783,-0.04801607131958,-0.3620181655883794,15.4211133,73.98115,0.0,0.3986917279761146,0.0,0.10007591571527087,0.006398706925100672
338296dd-d04e-4244-ab81-9044ef46b13e,6,1767702548271,2.26005,-7.5079503,-5.274,-0.0367125,0.035475,0.086075,-0.1599762439727783,-0.04801607131958,-0.3620181655883794,15.4211133,73.98115,0.0,0.3986917279761146,0.0,0.10007591571527087,-0.005511951896141443
338296dd-d04e-4244-ab81-9044ef46b13e,6,1767702548283,2.0310001,-7.4500504,-5.31195,-0.0378125,0.0383625,0.117837496,-0.1671023368835449,-0.2576825618743896,-0.4424653625488286,15.4211133,73.98115,0.0,0.5386084762993957,0.0,0.12956520376262298,0.009203487692166041
338296dd-d04e-4244-ab81-9044ef46b13e,6,1767702548294,2.0310001,-7.4500504,-5.31195,-0.0378125,0.0383625,0.117837496,-0.1671023368835449,-0.2576825618743896,-0.4424653625488286,15.4211133,73.98115,0.0,0.5386084762993957,0.0,0.12956520376262298,-0.0072943796677362414
338296dd-d04e-4244-ab81-9044ef46b13e,6,1767702548306,2.088,-7.4500504,-5.427,-0.0350625,0.0518375,0.1560625,-0.06207275390625,-0.2311574220657348,-0.3623538589477544,15.4211133,73.98115,0.0,0.4342661622184156,0.0,0.16814282386932247,0.014331646479205906
338296dd-d04e-4244-ab81-9044ef46b13e,6,1767702548317,2.088,-7.4500504,-5.427,-0.0350625,0.0518375,0.1560625,-0.06207275390625,-0.2311574220657348,-0.3623538589477544,15.4211133,73.98115,0.0,0.4342661622184156,0.0,0.16814282386932247,-0.0017727820169230067
338296dd-d04e-4244-ab81-9044ef46b13e,6,1767702548329,2.22195,-7.4689503,-5.44605,-0.03135,0.0471625,0.1830125,-0.0084428787231445,-0.0926856994628906,-0.3035216903686528,15.4211133,73.98115,0.0,0.3174702153120878,0.0,0.1915742651362651,0.007631063574995321
338296dd-d04e-4244-ab81-9044ef46b13e,6,1767702548340,2.22195,-7.4689503,-5.44605,-0.03135,0.0471625,0.1830125,-0.0084428787231445,-0.0926856994628906,-0.3035216903686528,15.4211133,73.98115,0.0,0.3174702153120878,0.0,0.1915742651362651,-0.003255722525083127
338296dd-d04e-4244-ab81-9044ef46b13e,6,1767702548351,2.31795,-7.5079503,-5.3880005,-0.0286,0.0372625,0.1920875,-0.0307483673095703,0.0450203418731689,-0.2826819992065434,15.4211133,73.98115,0.0,0.2878913092644332,0.0,0.1977474691683815,-0.004009746792290848
338296dd-d04e-4244-ab81-9044ef46b13e,6,1767702548363,2.31795,-7.5079503,-5.3880005,-0.0286,0.0372625,0.1920875,-0.0307483673095703,0.0450203418731689,-0.2826819992065434,15.4211133,73.98115,0.0,0.2878913092644332,0.0,0.1977474691683815,-0.006462438542404043
338296dd-d04e-4244-ab81-9044ef46b13e,6,1767702548375,2.433,-7.4500504,-5.44605,-0.010725,0.0259875,0.2011625,0.0962371826171875,0.1498558521270752,-0.267962036132813,15.4211133,73.98115,0.0,0.3217483870095834,0.0,0.20311752063152996,0.0011074758114326554
338296dd-d04e-4244-ab81-9044ef46b13e,6,1767702548387,2.433,-7.4500504,-5.44605,-0.010725,0.0259875,0.2011625,0.0962371826171875,0.1498558521270752,-0.267962036132813,15.4211133,73.98115,0.0,0.3217483870095834,0.0,0.20311752063152996,0.007795631732300876
338296dd-d04e-4244-ab81-9044ef46b13e,6,1767702548399,2.433,-7.4500504,-5.44605,-0.010725,0.0259875,0.2011625,0.0962371826171875,0.1498558521270752,-0.267962036132813,15.4211133,73.98115,0.0,0.3217483870095834,0.0,0.20311752063152996,0.018488649705037923
338296dd-d04e-4244-ab81-9044ef46b13e,6,1767702548410,2.6239502,-7.4119506,-5.484,0.00055,0.0202125,0.191125,0.2224013805389404,0.3284947872161865,-0.2319522476196294,15.4211133,73.98115,0.0,0.4595356835650874,0.0,0.192191605647203,0.0215079229097996
338296dd-d04e-4244-ab81-9044ef46b13e,6,1767702548421,2.6239502,-7.4890504,-5.46495,-0.0155375,0.0116875,0.1331,0.1733379364013672,0.3560633659362793,-0.1829629516601567,15.4211133,73.98115,0.0,0.4362368650606617,0.0,0.13451253310565525,-0.019923101023379353
338296dd-d04e-4244-ab81-9044ef46b13e,6,1767702548432,2.6239502,-7.4890504,-5.46495,-0.0155375,0.0116875,0.1331,0.1733379364013672,0.3560633659362793,-0.1829629516601567,15.4211133,73.98115,0.0,0.4362368650606617,0.0,0.13451253310565525,-0.002429292153608144
338296dd-d04e-4244-ab81-9044ef46b13e,6,1767702548443,2.433,-7.6420503,-5.3880005,-0.0350625,0.0045375,0.1023,-0.0320658683776855,0.2323431968688964,-0.1510167694091801,15.4211133,73.98115,0.0,0.2789581432560436,0.0,0.10823704454806589,-0.011033748091210913
338296dd-d04e-4244-ab81-9044ef46b13e,6,1767702548455,2.433,-7.6420503,-5.3880005,-0.0350625,0.0045375,0.1023,-0.0320658683776855,0.2323431968688964,-0.1510167694091801,15.4211133,73.98115,0.0,0.2789581432560436,0.0,0.10823704454806589,0.005828537098200859
338296dd-d04e-4244-ab81-9044ef46b13e,6,1767702548467,2.56695,-7.6990504,-5.44605,-0.0411125,0.0077,0.066,0.0240814685821533,0.3378715515136719,-0.0422292327880864,15.4211133,73.98115,0.0,0.3413508613629083,0.0,0.07813787593894526,-0.009038723248359574
338296dd-d04e-4244-ab81-9044ef46b13e,6,1767702548478,2.56695,-7.6990504,-5.44605,-0.0411125,0.0077,0.066,0.0240814685821533,0.3378715515136719,-0.0422292327880864,15.4211133,73.98115,0.0,0.3413508613629083,0.0,0.07813787593894526,0.003966456449622304
338296dd-d04e-4244-ab81-9044ef46b13e,6,1767702548489,2.56695,-7.5270004,-5.5030503,-0.03575,0.02145,0.014575,0.162057876586914,0.3075838088989258,-0.1452336883544926,15.4211133,73.98115,0.0,0.3767802795976459,0.0,0.0441655479418064,-0.01956471356341639
338296dd-d04e-4244-ab81-9044ef46b13e,6,1767702548500,2.56695,-7.5270004,-5.5030503,-0.03575,0.02145,0.014575,0.162057876586914,0.3075838088989258,-0.1452336883544926,15.4211133,73.98115,0.0,0.3767802795976459,0.0,0.0441655479418064,-0.011762442839420944
338296dd-d04e-4244-ab81-9044ef46b13e,6,1767702548512,2.56695,-7.5270004,-5.5030503,-0.03575,0.02145,0.014575,0.162057876586914,0.3075838088989258,-0.1452336883544926,15.4211133,73.98115,0.0,0.3767802795976459,0.0,0.0441655479418064,-0.006438246262722557
338296dd-d04e-4244-ab81-9044ef46b13e,6,1767702548524,2.3370001,-7.39305,-5.3500504,-0.034649998,0.02145,-0.015262499,0.046767234802246,0.1548724174499511,-0.391100463867188,15.4211133,73.98115,0.0,0.4232401360634055,0.0,0.04351630426776848,-0.0038977146486800915
338296dd-d04e-4244-ab81-9044ef46b13e,6,1767702548535,2.3370001,-7.39305,-5.3500504,-0.034649998,0.02145,-0.015262499,0.046767234802246,0.1548724174499511,-0.391100463867188,15.4211133,73.98115,0.0,0.4232401360634055,0.0,0.04351630426776848,-0.002387269563835518
338296dd-d04e-4244-ab81-9044ef46b13e,6,1767702548546,2.0310001,-7.3350005,-5.274,-0.0248875,0.0077,-0.0583,-0.0860123634338378,-0.095611572265625,-0.5511785125732427,15.4211133,73.98115,0.0,0.5659836147248715,0.0,0.06385583494286172,0.018270192881390018
338296dd-d04e-4244-ab81-9044ef46b13e,6,1767702548558,2.0310001,-7.3350005,-5.274,-0.0248875,0.0077,-0.0583,-0.0860123634338378,-0.095611572265625,-0.5511785125732427,15.4211133,73.98115,0.0,0.5659836147248715,0.0,0.06385583494286172,0.01783777776471295
338296dd-d04e-4244-ab81-9044ef46b13e,6,1767702548569,1.9159501,-7.4500504,-5.3310003,-0.01485,-0.00825,-0.0600875,-0.1641340255737304,-0.2249636650085449,-0.4549937820434575,15.4211133,73.98115,0.0,0.5334491265559671,0.0,0.062442714997427845,0.01557767450620917
338296dd-d04e-4244-ab81-9044ef46b13e,6,1767702548581,1.9159501,-7.4500504,-5.3310003,-0.01485,-0.00825,-0.0600875,-0.1641340255737304,-0.2249636650085449,-0.4549937820434575,15.4211133,73.98115,0.0,0.5334491265559671,0.0,0.062442714997427845,0.014507511407048836
338296dd-d04e-4244-ab81-9044ef46b13e,6,1767702548592,2.1070502,-7.66095,-5.44605,-0.0089375,-0.0251625,-0.0518375,-0.1501538753509521,-0.0961847305297851,-0.1789308166503911,15.4211133,73.98115,0.0,0.2526141837212878,0.0,0.05831086278516208,0.009120322506794286
338296dd-d04e-4244-ab81-9044ef46b13e,6,1767702548604,2.1070502,-7.66095,-5.44605,-0.0089375,-0.0251625,-0.0518375,-0.1501538753509521,-0.0961847305297851,-0.1789308166503911,15.4211133,73.98115,0.0,0.2526141837212878,0.0,0.05831086278516208,0.0075849090681175055
338296dd-d04e-4244-ab81-9044ef46b13e,6,1767702548615,2.26005,-7.6990504,-5.44605,-0.00055,-0.0342375,-0.0275,-0.1211459636688232,0.039515733718872,-0.113277969360352,15.4211133,73.98115,0.0,0.1704984928584223,0.0,0.043917637758080746,-0.00880620277645053
338296dd-d04e-4244-ab81-9044ef46b13e,6,1767702548626,2.26005,-7.6990504,-5.44605,-0.00055,-0.0342375,-0.0275,-0.1211459636688232,0.039515733718872,-0.113277969360352,15.4211133,73.98115,0.0,0.1704984928584223,0.0,0.043917637758080746,-0.011474846726801767
338296dd-d04e-4244-ab81-9044ef46b13e,6,1767702548638,2.2800002,-7.4890504,-5.3880005,-0.0001375,-0.0364375,0.0092124995,-0.0262799263000488,0.0736505985260009,-0.3069091415405278,15.4211133,73.98115,0.0,0.3167148028601093,0.0,0.03758431134845363,-0.021315411059173485
338296dd-d04e-4244-ab81-9044ef46b13e,6,1767702548649,2.2800002,-7.4890504,-5.3880005,-0.0001375,-0.0364375,0.0092124995,-0.0262799263000488,0.0736505985260009,-0.3069091415405278,15.4211133,73.98115,0.0,0.3167148028601093,0.0,0.03758431134845363,-0.025729714286569026
338296dd-d04e-4244-ab81-9044ef46b13e,6,1767702548660,2.2030501,-7.39305,-5.31195,0.0138875,-0.048675,0.0452375,-0.0451998710632324,0.0376317501068115,-0.4438901519775395,15.4211133,73.98115,0.0,0.4477696327162858,0.0,0.06788629970399035,-0.0006773619309365885
338296dd-d04e-4244-ab81-9044ef46b13e,6,1767702548671,2.2030501,-7.39305,-5.31195,0.0138875,-0.048675,0.0452375,-0.0451998710632324,0.0376317501068115,-0.4438901519775395,15.4211133,73.98115,0.0,0.4477696327162858,0.0,0.06788629970399035,-0.006534972950449307
338296dd-d04e-4244-ab81-9044ef46b13e,6,1767702548683,2.1649501,-7.4689503,-5.3500504,0.0207625,-0.0611875,0.0598125,-0.0696403980255127,0.002540111541748,-0.3712277984619145,15.4211133,73.98115,0.0,0.377711947857989,0.0,0.08804843393695314,0.00753170722816316
338296dd-d04e-4244-ab81-9044ef46b13e,6,1767702548694,2.1649501,-7.4689503,-5.3500504,0.0207625,-0.0611875,0.0598125,-0.0696403980255127,0.002540111541748,-0.3712277984619145,15.4211133,73.98115,0.0,0.377711947857989,0.0,0.08804843393695314,0.0016720732745558217
338296dd-d04e-4244-ab81-9044ef46b13e,6,1767702548705,2.2800002,-7.5649505,-5.3880005,0.0218625,-0.065725,0.062975,-0.0506932735443115,0.1098268032073974,-0.2474246597290044,15.4211133,73.98115,0.0,0.2754100523354375,0.0,0.09361407563101823,0.0021314868959375474
338296dd-d04e-4244-ab81-9044ef46b13e,6,1767702548717,2.2800002,-7.5649505,-5.3880005,0.0218625,-0.065725,0.062975,-0.0506932735443115,0.1098268032073974,-0.2474246597290044,15.4211133,73.98115,0.0,0.2754100523354375,0.0,0.09361407563101823,-0.0017307977107335398
338296dd-d04e-4244-ab81-9044ef46b13e,6,1767702548728,2.31795,-7.6039505,-5.3310003,0.0268125,-0.08305,0.0587125,-0.0889608860015869,0.1827261447906494,-0.2407136535644536,15.4211133,73.98115,0.0,0.3150332462464692,0.0,0.10518255707340451,0.007611047304548126
338296dd-d04e-4244-ab81-9044ef46b13e,6,1767702548739,2.31795,-7.6039505,-5.3310003,0.0268125,-0.08305,0.0587125,-0.0889608860015869,0.1827261447906494,-0.2407136535644536,15.4211133,73.98115,0.0,0.3150332462464692,0.0,0.10518255707340451,0.0072509744847768865
338296dd-d04e-4244-ab81-9044ef46b13e,6,1767702548751,2.31795,-7.6039505,-5.3310003,0.0268125,-0.08305,0.0587125,-0.0889608860015869,0.1827261447906494,-0.2407136535644536,15.4211133,73.98115,0.0,0.3150332462464692,0.0,0.10518255707340451,0.008784847559098124
338296dd-d04e-4244-ab81-9044ef46b13e,6,1767702548762,2.35605,-7.5460505,-5.3310003,0.0286,-0.084425,0.0573375,-0.027170181274414,0.2289109230041504,-0.2779317474365239,15.4211133,73.98115,0.0,0.3610879195628348,0.0,0.10598645918819063,0.01282381742294669
338296dd-d04e-4244-ab81-9044ef46b13e,6,1767702548774,2.35605,-7.5460505,-5.3310003,0.0286,-0.084425,0.0573375,-0.027170181274414,0.2289109230041504,-0.2779317474365239,15.4211133,73.98115,0.0,0.3610879195628348,0.0,0.10598645918819063,0.017360243216990843
338296dd-d04e-4244-ab81-9044ef46b13e,6,1767702548785,2.4139502,-7.5079503,-5.3689504,0.0298375,-0.065175,0.0441375,0.0541191101074218,0.2777993679046631,-0.2736468887329106,15.4211133,73.98115,0.0,0.3936800561372796,0.0,0.08417942704426064,0.0008262129250684028
338296dd-d04e-4244-ab81-9044ef46b13e,6,1767702548796,2.4139502,-7.5079503,-5.3689504,0.0298375,-0.065175,0.0441375,0.0541191101074218,0.2777993679046631,-0.2736468887329106,15.4211133,73.98115,0.0,0.3936800561372796,0.0,0.08417942704426064,0.006172521680951399
338296dd-d04e-4244-ab81-9044ef46b13e,6,1767702548807,2.4709501,-7.5460505,-5.4079504,0.0232375,-0.0427625,0.0342375,0.0857892036437988,0.3217549324035644,-0.2087751007080083,15.4211133,73.98115,0.0,0.3930306179720589,0.0,0.059504783158583145,-0.01376203012900162
338296dd-d04e-4244-ab81-9044ef46b13e,6,1767702548818,2.4709501,-7.5460505,-5.4079504,0.0232375,-0.0427625,0.0342375,0.0857892036437988,0.3217549324035644,-0.2087751007080083,15.4211133,73.98115,0.0,0.3930306179720589,0.0,0.059504783158583145,-0.010237143712588926
338296dd-d04e-4244-ab81-9044ef46b13e,6,1767702548829,2.5860002,-7.5460505,-5.484,0.017324999,-0.003575,0.0374,0.1815307140350341,0.3932745456695556,-0.139584121704102,15.4211133,73.98115,0.0,0.4550846025098743,0.0,0.041372650571966034,-0.026518947972043842
338296dd-d04e-4244-ab81-9044ef46b13e,7,1767702548841,2.5860002,-7.5460505,-5.484,0.017324999,-0.003575,0.0374,0.1815307140350341,0.3932745456695556,-0.139584121704102,15.4211133,73.98115,0.0,0.4550846025098743,0.0,0.041372650571966034,-0.026592794009104356
338296dd-d04e-4244-ab81-9044ef46b13e,7,1767702548852,2.5480502,-7.4119506,-5.46495,0.00715,0.067925,-0.0306625,0.2360408306121826,0.3555190563201904,-0.2646775817871099,15.4211133,73.98115,0.0,0.5021586357154082,0.0,0.07486732953197944,0.0048965784132869675
338296dd-d04e-4244-ab81-9044ef46b13e,7,1767702548863,2.5480502,-7.4119506,-5.46495,0.00715,0.067925,-0.0306625,0.2360408306121826,0.3555190563201904,-0.2646775817871099,15.4211133,73.98115,0.0,0.5021586357154082,0.0,0.07486732953197944,0.0011956491944619327
338296dd-d04e-4244-ab81-9044ef46b13e,7,1767702548874,2.49,-7.25895,-5.3880005,0.00385,0.06875,-0.061875,0.2464840412139892,0.3076963424682617,-0.4415622329711919,15.4211133,73.98115,0.0,0.5919532306931271,0.0,0.09257375775564046,0.0139539611697012
338296dd-d04e-4244-ab81-9044ef46b13e,7,1767702548884,2.49,-7.25895,-5.3880005,0.00385,0.06875,-0.061875,0.2464840412139892,0.3076963424682617,-0.4415622329711919,15.4211133,73.98115,0.0,0.5919532306931271,0.0,0.09257375775564046,0.008362710756791972
338296dd-d04e-4244-ab81-9044ef46b13e,7,1767702548896,2.3370001,-7.2400503,-5.3880005,-0.0089375,0.0430375,-0.0856625,0.195892333984375,0.1453702449798584,-0.4906154251098638,15.4211133,73.98115,0.0,0.5479140534747053,0.0,0.09628171798815184,0.006520606214109319
338296dd-d04e-4244-ab81-9044ef46b13e,7,1767702548907,2.3370001,-7.2400503,-5.3880005,-0.0089375,0.0430375,-0.0856625,0.195892333984375,0.1453702449798584,-0.4906154251098638,15.4211133,73.98115,0.0,0.5479140534747053,0.0,0.09628171798815184,0.0016923649939153578
338296dd-d04e-4244-ab81-9044ef46b13e,7,1767702548918,2.3370001,-7.2400503,-5.3880005,-0.0089375,0.0430375,-0.0856625,0.195892333984375,0.1453702449798584,-0.4906154251098638,15.4211133,73.98115,0.0,0.5479140534747053,0.0,0.09628171798815184,-0.0018196513767620784
338296dd-d04e-4244-ab81-9044ef46b13e,7,1767702548929,2.31795,-7.3350005,-5.484,-0.0232375,0.0339625,-0.0889625,0.1840226650238037,0.0701079368591308,-0.3648629760742192,15.4211133,73.98115,0.0,0.4146136217767612,0.0,0.09801917781102838,-0.0018418801410604337
338296dd-d04e-4244-ab81-9044ef46b13e,7,1767702548940,2.31795,-7.3350005,-5.484,-0.0232375,0.0339625,-0.0889625,0.1840226650238037,0.0701079368591308,-0.3648629760742192,15.4211133,73.98115,0.0,0.4146136217767612,0.0,0.09801917781102838,-0.0016254953051025305
338296dd-d04e-4244-ab81-9044ef46b13e,7,1767702548952,2.3370001,-7.4119506,-5.46495,-0.03355,0.0295625,-0.085525,0.112168550491333,0.0790092945098877,-0.3102374649047856,15.4211133,73.98115,0.0,0.3392219582645336,0.0,0.09650942716258346,-0.0009618992145536539
338296dd-d04e-4244-ab81-9044ef46b13e,7,1767702548962,2.3370001,-7.4119506,-5.46495,-0.03355,0.0295625,-0.085525,0.112168550491333,0.0790092945098877,-0.3102374649047856,15.4211133,73.98115,0.0,0.3392219582645336,0.0,0.09650942716258346,0.002902914429623828
338296dd-d04e-4244-ab81-9044ef46b13e,7,1767702548974,2.26005,-7.4500504,-5.3880005,-0.0402875,0.009075,-0.0856625,-0.0084693431854248,0.0253174304962158,-0.3421111679077153,15.4211133,73.98115,0.0,0.3431512105007124,0.0,0.09509733007555995,0.006559789813071233
338296dd-d04e-4244-ab81-9044ef46b13e,7,1767702548985,2.26005,-7.4500504,-5.3880005,-0.0402875,0.009075,-0.0856625,-0.0084693431854248,0.0253174304962158,-0.3421111679077153,15.4211133,73.98115,0.0,0.3431512105007124,0.0,0.09509733007555995,0.012175117451106941
338296dd-d04e-4244-ab81-9044ef46b13e,7,1767702548997,2.05005,-7.5460505,-5.2930503,-0.0438625,-0.000825,-0.0776875,-0.2182002067565918,-0.1343960762023925,-0.3709188079833989,15.4211133,73.98115,0.0,0.4508374403740713,0.0,0.08921853612058428,0.011703749306719597
338296dd-d04e-4244-ab81-9044ef46b13e,7,1767702549008,2.05005,-7.5460505,-5.2930503,-0.0438625,-0.000825,-0.0776875,-0.2182002067565918,-0.1343960762023925,-0.3709188079833989,15.4211133,73.98115,0.0,0.4508374403740713,0.0,0.08921853612058428,0.016142512359785137
338296dd-d04e-4244-ab81-9044ef46b13e,7,1767702549019,2.0310001,-7.66095,-5.3310003,-0.0391875,-0.00055,-0.060225,-0.2762434482574463,-0.1699590682983398,-0.263821182250977,15.4211133,73.98115,0.0,0.4180886793567931,0.0,0.0718541110949819,0.0015772841774302042
338296dd-d04e-4244-ab81-9044ef46b13e,7,1767702549031,2.0310001,-7.66095,-5.3310003,-0.0391875,-0.00055,-0.060225,-0.2762434482574463,-0.1699590682983398,-0.263821182250977,15.4211133,73.98115,0.0,0.4180886793567931,0.0,0.0718541110949819,0.0022470185288526955
338296dd-d04e-4244-ab81-9044ef46b13e,7,1767702549042,1.9920001,-7.79505,-5.4079504,-0.0246125,-0.02035,-0.0094875,-0.3185071945190429,-0.2342574596405029,-0.1239009475708012,15.4211133,73.98115,0.0,0.4143366205955681,0.0,0.03331531648506434,-0.037987072750895204
338296dd-d04e-4244-ab81-9044ef46b13e,7,1767702549054,1.9920001,-7.79505,-5.4079504,-0.0246125,-0.02035,-0.0094875,-0.3185071945190429,-0.2342574596405029,-0.1239009475708012,15.4211133,73.98115,0.0,0.4143366205955681,0.0,0.03331531648506434,-0.04198500876658954
338296dd-d04e-4244-ab81-9044ef46b13e,7,1767702549065,2.01195,-7.79505,-5.44605,-0.0165,-0.053625,0.0314875,-0.2734761238098144,-0.2179872989654541,-0.0967126464843755,15.4211133,73.98115,0.0,0.3628511937341629,0.0,0.06433780600276948,-0.016897715386688588
338296dd-d04e-4244-ab81-9044ef46b13e,7,1767702549076,2.01195,-7.79505,-5.44605,-0.0165,-0.053625,0.0314875,-0.2734761238098144,-0.2179872989654541,-0.0967126464843755,15.4211133,73.98115,0.0,0.3628511937341629,0.0,0.06433780600276948,-0.0241391969268506
338296dd-d04e-4244-ab81-9044ef46b13e,7,1767702549088,2.12595,-7.6420503,-5.2540503,0.0078375,-0.0829125,0.082775,-0.266301155090332,-0.0217835903167724,-0.2992549514770513,15.4211133,73.98115,0.0,0.4011787082997631,0.0,0.11742065272983285,0.02121542027673895
338296dd-d04e-4244-ab81-9044ef46b13e,7,1767702549099,2.12595,-7.6420503,-5.2540503,0.0078375,-0.0829125,0.082775,-0.266301155090332,-0.0217835903167724,-0.2992549514770513,15.4211133,73.98115,0.0,0.4011787082997631,0.0,0.11742065272983285,0.013901470283233755
338296dd-d04e-4244-ab81-9044ef46b13e,7,1767702549110,2.12595,-7.6420503,-5.2540503,0.0078375,-0.0829125,0.082775,-0.266301155090332,-0.0217835903167724,-0.2992549514770513,15.4211133,73.98115,0.0,0.4011787082997631,0.0,0.11742065272983285,0.007862365266855298
338296dd-d04e-4244-ab81-9044ef46b13e,7,1767702549122,2.2800002,-7.3740005,-5.235,0.0254375,-0.0829125,0.103675,-0.0502502918243408,0.1417658329010009,-0.4849315261840825,15.4211133,73.98115,0.0,0.5077216051083207,0.0,0.1351667662093756,0.02154571559228834
338296dd-d04e-4244-ab81-9044ef46b13e,7,1767702549133,2.2800002,-7.3740005,-5.235,0.0254375,-0.0829125,0.103675,-0.0502502918243408,0.1417658329010009,-0.4849315261840825,15.4211133,73.98115,0.0,0.5077216051083207,0.0,0.1351667662093756,0.01990464235035237
338296dd-d04e-4244-ab81-9044ef46b13e,7,1767702549145,2.529,-7.2780004,-5.3500504,0.03795,-0.065725,0.1109625,0.187108039855957,0.3415091037750244,-0.4378848648071294,15.4211133,73.98115,0.0,0.5859872365223638,0.0,0.13443457342235293,0.020081803634879887
338296dd-d04e-4244-ab81-9044ef46b13e,7,1767702549156,2.529,-7.2780004,-5.3500504,0.03795,-0.065725,0.1109625,0.187108039855957,0.3415091037750244,-0.4378848648071294,15.4211133,73.98115,0.0,0.5859872365223638,0.0,0.13443457342235293,0.02333941570785816
338296dd-d04e-4244-ab81-9044ef46b13e,7,1767702549168,2.739,-7.3350005,-5.3880005,0.0468875,-0.040975,0.0837375,0.2610995769500732,0.5338072776794434,-0.3241248703002934,15.4211133,73.98115,0.0,0.6768900430160186,0.0,0.10435208281342544,-0.0016359595139278896
338296dd-d04e-4244-ab81-9044ef46b13e,7,1767702549179,2.739,-7.3350005,-5.3880005,0.0468875,-0.040975,0.0837375,0.2610995769500732,0.5338072776794434,-0.3241248703002934,15.4211133,73.98115,0.0,0.6768900430160186,0.0,0.10435208281342544,0.00460315263299384
338296dd-d04e-4244-ab81-9044ef46b13e,7,1767702549191,2.739,-7.5270004,-5.484,0.0460625,-0.0286,0.062425,0.2200808525085449,0.5006968975067139,-0.11809497833252,15.4211133,73.98115,0.0,0.5595349754225334,0.0,0.08268370172682159,-0.010520989410171962
338296dd-d04e-4244-ab81-9044ef46b13e,7,1767702549203,2.739,-7.5270004,-5.484,0.0460625,-0.0286,0.062425,0.2200808525085449,0.5006968975067139,-0.11809497833252,15.4211133,73.98115,0.0,0.5595349754225334,0.0,0.08268370172682159,-0.004483923203277234
338296dd-d04e-4244-ab81-9044ef46b13e,7,1767702549214,2.6430001,-7.623,-5.46495,0.0369875,0.0188375,-0.0009625,0.1228690147399902,0.4148881435394287,-0.0748038864135747,15.4211133,73.98115,0.0,0.4391179657624413,0.0,0.041519308384774425,-0.040797096626443326
338296dd-d04e-4244-ab81-9044ef46b13e,7,1767702549225,2.6430001,-7.623,-5.46495,0.0369875,0.0188375,-0.0009625,0.1228690147399902,0.4148881435394287,-0.0748038864135747,15.4211133,73.98115,0.0,0.4391179657624413,0.0,0.041519308384774425,-0.037581332995734046
338296dd-d04e-4244-ab81-9044ef46b13e,7,1767702549237,2.5480502,-7.5840006,-5.3689504,0.0352,0.034649998,-0.0422125,0.0512008666992187,0.3486757278442383,-0.1813407516479497,15.4211133,73.98115,0.0,0.3963341521326466,0.0,0.06497351397030951,-0.012710531877069036
338296dd-d04e-4244-ab81-9044ef46b13e,7,1767702549248,2.5480502,-7.5840006,-5.3689504,0.0352,0.034649998,-0.0422125,0.0512008666992187,0.3486757278442383,-0.1813407516479497,15.4211133,73.98115,0.0,0.3963341521326466,0.0,0.06497351397030951,-0.01296136141794884
338296dd-d04e-4244-ab81-9044ef46b13e,7,1767702549260,2.3749502,-7.431,-5.3689504,0.033,0.0496375,-0.0669625,0.0878949165344238,0.1665968894958496,-0.3416152572631841,15.4211133,73.98115,0.0,0.3901038630125022,0.0,0.08964852376085174,0.010184006905099696
338296dd-d04e-4244-ab81-9044ef46b13e,7,1767702549271,2.3749502,-7.431,-5.3689504,0.033,0.0496375,-0.0669625,0.0878949165344238,0.1665968894958496,-0.3416152572631841,15.4211133,73.98115,0.0,0.3901038630125022,0.0,0.08964852376085174,0.007941350408276414
338296dd-d04e-4244-ab81-9044ef46b13e,7,1767702549283,2.2030501,-7.3350005,-5.3689504,0.0171875,0.0572,-0.082775,0.0871615409851074,-0.0135974884033203,-0.457272109985352,15.4211133,73.98115,0.0,0.4657035628897774,0.0,0.10207326183310692,0.018046195937031134
338296dd-d04e-4244-ab81-9044ef46b13e,7,1767702549295,2.2030501,-7.3350005,-5.3689504,0.0171875,0.0572,-0.082775,0.0871615409851074,-0.0135974884033203,-0.457272109985352,15.4211133,73.98115,0.0,0.4657035628897774,0.0,0.10207326183310692,0.01623778828125194
338296dd-d04e-4244-ab81-9044ef46b13e,7,1767702549306,1.9729501,-7.4890504,-5.3880005,0.0064625,0.0595375,-0.0787875,-0.0746700763702392,-0.2468560934066772,-0.3790689086914067,15.4211133,73.98115,0.0,0.4584831389414856,0.0,0.09896437727157181,0.012265549325028564
338296dd-d04e-4244-ab81-9044ef46b13e,7,1767702549317,1.9729501,-7.4890504,-5.3880005,0.0064625,0.0595375,-0.0787875,-0.0746700763702392,-0.2468560934066772,-0.3790689086914067,15.4211133,73.98115,0.0,0.4584831389414856,0.0,0.09896437727157181,0.012543481659004463
338296dd-d04e-4244-ab81-9044ef46b13e,7,1767702549328,1.8769501,-7.5649505,-5.44605,-0.02805,0.0389125,-0.07865,-0.1152529716491699,-0.3703111410140991,-0.3094497299194341,15.4211133,73.98115,0.0,0.4961579627299546,0.0,0.09212387126174193,0.007037558942051024
338296dd-d04e-4244-ab81-9044ef46b13e,7,1767702549339,1.8769501,-7.5649505,-5.44605,-0.02805,0.0389125,-0.07865,-0.1152529716491699,-0.3703111410140991,-0.3094497299194341,15.4211133,73.98115,0.0,0.4961579627299546,0.0,0.09212387126174193,0.009065273281956176
338296dd-d04e-4244-ab81-9044ef46b13e,7,1767702549350,1.8769501,-7.5649505,-5.44605,-0.02805,0.0389125,-0.07865,-0.1152529716491699,-0.3703111410140991,-0.3094497299194341,15.4211133,73.98115,0.0,0.4961579627299546,0.0,0.09212387126174193,0.011191463377263176
338296dd-d04e-4244-ab81-9044ef46b13e,7,1767702549362,1.8970501,-7.5460505,-5.44605,-0.037125,0.02805,-0.0688875,-0.1066119670867919,-0.3600190877914428,-0.3199973678588872,15.4211133,73.98115,0.0,0.4933337313998647,0.0,0.0831297526836812,0.0036834235685254935
338296dd-d04e-4244-ab81-9044ef46b13e,7,1767702549373,1.8970501,-7.5460505,-5.44605,-0.037125,0.02805,-0.0688875,-0.1066119670867919,-0.3600190877914428,-0.3199973678588872,15.4211133,73.98115,0.0,0.4933337313998647,0.0,0.0831297526836812,0.0037614890904619325
338296dd-d04e-4244-ab81-9044ef46b13e,7,1767702549384,1.8970501,-7.5460505,-5.44605,-0.037125,0.02805,-0.0688875,-0.1066119670867919,-0.3600190877914428,-0.3199973678588872,15.4211133,73.98115,0.0,0.4933337313998647,0.0,0.0831297526836812,0.0017600553282193835
338296dd-d04e-4244-ab81-9044ef46b13e,7,1767702549395,1.9920001,-7.5270004,-5.427,-0.0317625,0.01265,-0.0391875,-0.0884473323822021,-0.2717311382293701,-0.3234563446044927,15.4211133,73.98115,0.0,0.4316071697201717,0.0,0.052005183034962967,-0.033902185436869244
338296dd-d04e-4244-ab81-9044ef46b13e,7,1767702549407,2.0310001,-7.5649505,-5.4079504,-0.032449998,-0.0232375,0.043449998,-0.1189601421356201,-0.2280514240264892,-0.2951055145263677,15.4211133,73.98115,0.0,0.3914667701367624,0.0,0.05899903476032475,-0.03413151921395499
338296dd-d04e-4244-ab81-9044ef46b13e,7,1767702549418,2.0310001,-7.5649505,-5.4079504,-0.032449998,-0.0232375,0.043449998,-0.1189601421356201,-0.2280514240264892,-0.2951055145263677,15.4211133,73.98115,0.0,0.3914667701367624,0.0,0.05899903476032475,-0.04383011491898242
338296dd-d04e-4244-ab81-9044ef46b13e,7,1767702549430,2.088,-7.5079503,-5.4079504,-0.0325875,-0.0433125,0.099825,-0.0645091533660888,-0.1606590747833252,-0.3260655975341802,15.4211133,73.98115,0.0,0.3691768452565323,0.0,0.11359114594676822,-0.0008409050924104112
338296dd-d04e-4244-ab81-9044ef46b13e,7,1767702549441,2.088,-7.5079503,-5.4079504,-0.0325875,-0.0433125,0.099825,-0.0645091533660888,-0.1606590747833252,-0.3260655975341802,15.4211133,73.98115,0.0,0.3691768452565323,0.0,0.11359114594676822,-0.013466609799088324
338296dd-d04e-4244-ab81-9044ef46b13e,7,1767702549453,2.1649501,-7.4890504,-5.4079504,-0.020624999,-0.0540375,0.15785,-0.0234079360961914,-0.0640909671783447,-0.3224206542968755,15.4211133,73.98115,0.0,0.3295613173043286,0.0,0.16811324900197483,0.028502372658656724
338296dd-d04e-4244-ab81-9044ef46b13e,7,1767702549464,2.1649501,-7.4890504,-5.4079504,-0.020624999,-0.0540375,0.15785,-0.0234079360961914,-0.0640909671783447,-0.3224206542968755,15.4211133,73.98115,0.0,0.3295613173043286,0.0,0.16811324900197483,0.017202286524694948
338296dd-d04e-4244-ab81-9044ef46b13e,7,1767702549475,2.22195,-7.5270004,-5.44605,-0.020075,-0.055275,0.1736625,0.0102705955505371,0.0078108310699462,-0.2574010467529302,15.4211133,73.98115,0.0,0.2577242578502654,0.0,0.18334938002690382,0.023514258306385927
338296dd-d04e-4244-ab81-9044ef46b13e,7,1767702549487,2.22195,-7.5270004,-5.44605,-0.020075,-0.055275,0.1736625,0.0102705955505371,0.0078108310699462,-0.2574010467529302,15.4211133,73.98115,0.0,0.2577242578502654,0.0,0.18334938002690382,0.017895130040981342
338296dd-d04e-4244-ab81-9044ef46b13e,7,1767702549499,2.2410002,-7.5649505,-5.3880005,-0.0180125,-0.0598125,0.16665,-0.034381628036499,0.0869586467742919,-0.2563415145874028,15.4211133,73.98115,0.0,0.2728642055972529,0.0,0.17797249172976143,0.010828164683198206
338296dd-d04e-4244-ab81-9044ef46b13e,7,1767702549510,2.2410002,-7.5649505,-5.3880005,-0.0180125,-0.0598125,0.16665,-0.034381628036499,0.0869586467742919,-0.2563415145874028,15.4211133,73.98115,0.0,0.2728642055972529,0.0,0.17797249172976143,0.01331388343221702
338296dd-d04e-4244-ab81-9044ef46b13e,7,1767702549522,2.26005,-7.5649505,-5.3880005,-0.0122375,-0.0532125,0.13859999,-0.0149934291839599,0.138108491897583,-0.2524066543579106,15.4211133,73.98115,0.0,0.2881108772973921,0.0,0.1489673917020101,-0.009185244947570233
338296dd-d04e-4244-ab81-9044ef46b13e,7,1767702549533,2.26005,-7.5649505,-5.3880005,-0.0122375,-0.0532125,0.13859999,-0.0149934291839599,0.138108491897583,-0.2524066543579106,15.4211133,73.98115,0.0,0.2881108772973921,0.0,0.1489673917020101,0.0008067233353404442
338296dd-d04e-4244-ab81-9044ef46b13e,7,1767702549545,2.26005,-7.5270004,-5.3880005,-0.0031625,-0.043449998,0.1123375,0.0189747810363769,0.1640248298645019,-0.2828345870971684,15.4211133,73.98115,0.0,0.3275051003967466,0.0,0.12048907684391978,-0.01503924893938723
338296dd-d04e-4244-ab81-9044ef46b13e,7,1767702549556,2.26005,-7.5270004,-5.3880005,-0.0031625,-0.043449998,0.1123375,0.0189747810363769,0.1640248298645019,-0.2828345870971684,15.4211133,73.98115,0.0,0.3275051003967466,0.0,0.12048907684391978,-0.000822219902478833
338296dd-d04e-4244-ab81-9044ef46b13e,7,1767702549567,2.2800002,-7.5270004,-5.3880005,-0.0031625,-0.043449998,0.1123375,0.0357570648193359,0.2051622867584228,-0.2789292907714849,15.4211133,73.98115,0.0,0.3480972290075333,0.0,0.12048907684391978,0.013835798307162191
338296dd-d04e-4244-ab81-9044ef46b13e,7,1767702549579,2.2800002,-7.4689503,-5.3689504,0.0050875,-0.021175,0.083875,0.0567286014556884,0.2074532508850097,-0.3356662368774419,15.4211133,73.98115,0.0,0.398656253061883,0.0,0.08665609560931072,-0.006001934483173617
338296dd-d04e-4244-ab81-9044ef46b13e,7,1767702549590,2.2800002,-7.4689503,-5.3689504,0.0050875,-0.021175,0.083875,0.0567286014556884,0.2074532508850097,-0.3356662368774419,15.4211133,73.98115,0.0,0.398656253061883,0.0,0.08665609560931072,0.006385609362092742
338296dd-d04e-4244-ab81-9044ef46b13e,7,1767702549601,2.31795,-7.4689503,-5.427,0.0028875,0.0026125,0.0446875,0.1171917915344238,0.2296884059906005,-0.2945409393310552,15.4211133,73.98115,0.0,0.3914652536197448,0.0,0.04485683302184852,-0.0253237433082814
338296dd-d04e-4244-ab81-9044ef46b13e,7,1767702549613,2.31795,-7.4689503,-5.427,0.0028875,0.0026125,0.0446875,0.1171917915344238,0.2296884059906005,-0.2945409393310552,15.4211133,73.98115,0.0,0.3914652536197448,0.0,0.04485683302184852,-0.01790392911014107
338296dd-d04e-4244-ab81-9044ef46b13e,7,1767702549624,2.31795,-7.5079503,-5.427,0.0017875,0.0276375,-0.0097624995,0.0947608947753906,0.2322182655334472,-0.2637086486816411,15.4211133,73.98115,0.0,0.3639329628042677,0.0,0.02936550627841278,-0.028678884534792084
338296dd-d04e-4244-ab81-9044ef46b13e,7,1767702549636,2.31795,-7.5079503,-5.427,0.0017875,0.0276375,-0.0097624995,0.0947608947753906,0.2322182655334472,-0.2637086486816411,15.4211133,73.98115,0.0,0.3639329628042677,0.0,0.02936550627841278,-0.026381380930688668
338296dd-d04e-4244-ab81-9044ef46b13e,7,1767702549647,2.26005,-7.4689503,-5.3689504,-0.0048125,0.0677875,-0.0317625,0.0538480281829834,0.1908681392669677,-0.3400836563110356,15.4211133,73.98115,0.0,0.3936840738667397,0.0,0.07501441007399845,0.019688364840749952
338296dd-d04e-4244-ab81-9044ef46b13e,7,1767702549659,2.26005,-7.4689503,-5.3689504,-0.0048125,0.0677875,-0.0317625,0.0538480281829834,0.1908681392669677,-0.3400836563110356,15.4211133,73.98115,0.0,0.3936840738667397,0.0,0.07501441007399845,0.018942339554284687
338296dd-d04e-4244-ab81-9044ef46b13e,7,1767702549669,2.12595,-7.5649505,-5.4079504,-0.0081124995,0.075075,-0.034925,-0.0277249813079834,0.0403025150299072,-0.2710424041748052,15.4211133,73.98115,0.0,0.2754214083311651,0.0,0.08319749935026594,0.025983820470096643
338296dd-d04e-4244-ab81-9044ef46b13e,7,1767702549680,2.12595,-7.5649505,-5.4079504,-0.0081124995,0.075075,-0.034925,-0.0277249813079834,0.0403025150299072,-0.2710424041748052,15.4211133,73.98115,0.0,0.2754214083311651,0.0,0.08319749935026594,0.02517302202290516
338296dd-d04e-4244-ab81-9044ef46b13e,7,1767702549691,1.9920001,-7.6039505,-5.3880005,-0.0042625,0.0567875,-0.0328625,-0.1148731708526611,-0.0865139961242675,-0.2811999893188481,15.4211133,73.98115,0.0,0.3158384886299559,0.0,0.06574901496410422,0.007834454056097707
338296dd-d04e-4244-ab81-9044ef46b13e,7,1767702549703,1.9920001,-7.6039505,-5.3880005,-0.0042625,0.0567875,-0.0328625,-0.1148731708526611,-0.0865139961242675,-0.2811999893188481,15.4211133,73.98115,0.0,0.3158384886299559,0.0,0.06574901496410422,0.009253472544732811
338296dd-d04e-4244-ab81-9044ef46b13e,7,1767702549714,2.05005,-7.5840006,-5.4079504,0.0017875,0.037125,-0.0268125,-0.0694706439971923,-0.0536181926727294,-0.2728076553344731,15.4211133,73.98115,0.0,0.28657476820538,0.0,0.04582980403078329,-0.007782449376867365
338296dd-d04e-4244-ab81-9044ef46b13e,7,1767702549725,2.05005,-7.5840006,-5.4079504,0.0017875,0.037125,-0.0268125,-0.0694706439971923,-0.0536181926727294,-0.2728076553344731,15.4211133,73.98115,0.0,0.28657476820538,0.0,0.04582980403078329,-0.0035101637545522963
338296dd-d04e-4244-ab81-9044ef46b13e,7,1767702549736,2.1460502,-7.5079503,-5.3689504,0.004675,0.0264,-0.0213125,-0.0192420482635498,0.0369868278503418,-0.3337798690795903,15.4211133,73.98115,0.0,0.3363737249824903,0.0,0.03424964643978095,-0.009701471027822536
338296dd-d04e-4244-ab81-9044ef46b13e,7,1767702549748,2.1460502,-7.5079503,-5.3689504,0.004675,0.0264,-0.0213125,-0.0192420482635498,0.0369868278503418,-0.3337798690795903,15.4211133,73.98115,0.0,0.3363737249824903,0.0,0.03424964643978095,-0.0036096707537412926
338296dd-d04e-4244-ab81-9044ef46b13e,7,1767702549759,2.1460502,-7.5079503,-5.3689504,0.004675,0.0264,-0.0213125,-0.0192420482635498,0.0369868278503418,-0.3337798690795903,15.4211133,73.98115,0.0,0.3363737249824903,0.0,0.03424964643978095,0.0026989266007504125
338296dd-d04e-4244-ab81-9044ef46b13e,7,1767702549770,2.26005,-7.4500504,-5.3689504,0.005775,0.007425,0.003025,0.0536134243011474,0.1289186477661132,-0.3539310073852544,15.4211133,73.98115,0.0,0.3804754591243423,0.0,0.009880884322771925,-0.01563238176910491
338296dd-d04e-4244-ab81-9044ef46b13e,7,1767702549782,2.26005,-7.4500504,-5.3689504,0.005775,0.007425,0.003025,0.0536134243011474,0.1289186477661132,-0.3539310073852544,15.4211133,73.98115,0.0,0.3804754591243423,0.0,0.009880884322771925,-0.010292599195079142
338296dd-d04e-4244-ab81-9044ef46b13e,7,1767702549793,2.2800002,-7.5079503,-5.3689504,0.0044,0.0033,0.0081124995,0.0259687900543212,0.1451101303100586,-0.3035989379882817,15.4211133,73.98115,0.0,0.3374961379380513,0.0,0.009801155449103961,-0.006047283343501487
338296dd-d04e-4244-ab81-9044ef46b13e,7,1767702549804,2.2800002,-7.5079503,-5.3689504,0.0044,0.0033,0.0081124995,0.0259687900543212,0.1451101303100586,-0.3035989379882817,15.4211133,73.98115,0.0,0.3374961379380513,0.0,0.009801155449103961,-0.0029164457451592144
338296dd-d04e-4244-ab81-9044ef46b13e,7,1767702549815,2.35605,-7.5649505,-5.46495,0.00055,0.0086624995,0.00825,0.0851945877075195,0.1728057861328125,-0.186693725585938,15.4211133,73.98115,0.0,0.2682806453488419,0.0,0.011975136641704773,0.0011590001517774726
338296dd-d04e-4244-ab81-9044ef46b13e,7,1767702549827,2.35605,-7.5649505,-5.46495,0.00055,0.0086624995,0.00825,0.0851945877075195,0.1728057861328125,-0.186693725585938,15.4211133,73.98115,0.0,0.2682806453488419,0.0,0.011975136641704773,0.001927153371965735
338296dd-d04e-4244-ab81-9044ef46b13e,7,1767702549838,2.394,-7.5649505,-5.44605,-0.0012375,0.0143,0.0114124995,0.0828528404235839,0.2090640068054199,-0.1887422180175786,15.4211133,73.98115,0.0,0.2935915137908242,0.0,0.018337572115400127,0.008123134157082686
338296dd-d04e-4244-ab81-9044ef46b13e,8,1767702549849,2.394,-7.5649505,-5.44605,-0.0012375,0.0143,0.0114124995,0.0828528404235839,0.2090640068054199,-0.1887422180175786,15.4211133,73.98115,0.0,0.2935915137908242,0.0,0.018337572115400127,0.007285312899790297
338296dd-d04e-4244-ab81-9044ef46b13e,8,1767702549859,2.394,-7.5649505,-5.44605,-0.0012375,0.0143,0.0114124995,0.0828528404235839,0.2090640068054199,-0.1887422180175786,15.4211133,73.98115,0.0,0.2935915137908242,0.0,0.018337572115400127,0.0060628834017376195
338296dd-d04e-4244-ab81-9044ef46b13e,8,1767702549870,2.394,-7.5079503,-5.3689504,-0.000825,0.0193875,0.0111375,0.0615439414978027,0.2329285144805908,-0.2775207138061528,15.4211133,73.98115,0.0,0.3675065933894198,0.0,0.02237408517682902,0.008764819099443157
338296dd-d04e-4244-ab81-9044ef46b13e,8,1767702549881,2.0689502,-7.4119506,-5.8669505,0.0012375,0.01815,-0.0023375,0.3493492603302002,-0.2722067832946777,-0.1434321975708012,15.4211133,73.98115,0.0,0.4655257606887969,0.0,0.0183416960093662,0.003513992018907083
338296dd-d04e-4244-ab81-9044ef46b13e,8,1767702549892,2.0689502,-7.4119506,-5.8669505,0.0012375,0.01815,-0.0023375,0.3493492603302002,-0.2722067832946777,-0.1434321975708012,15.4211133,73.98115,0.0,0.4655257606887969,0.0,0.0183416960093662,0.0025766349618695063
338296dd-d04e-4244-ab81-9044ef46b13e,8,1767702549903,1.8580501,-7.3350005,-4.737,-0.0097624995,0.0006875,-0.000825,-0.4743971824645996,0.0012003183364868,-0.8954768753051763,15.4211133,73.98115,0.0,1.0133770086699134,0.0,0.009821388788633726,-0.00650621458829657
338296dd-d04e-4244-ab81-9044ef46b13e,8,1767702549914,1.9350001,-7.39305,-4.8520503,-0.0097624995,0.0006875,-0.000825,-0.4013056755065918,0.0254788398742675,-0.7666516876220708,15.4211133,73.98115,0.0,0.8657079337795801,0.0,0.009821388788633726,-0.006669282005768274
338296dd-d04e-4244-ab81-9044ef46b13e,8,1767702549925,1.9350001,-7.39305,-4.8520503,-0.0097624995,0.0006875,-0.000825,-0.4013056755065918,0.0254788398742675,-0.7666516876220708,15.4211133,73.98115,0.0,0.8657079337795801,0.0,0.009821388788633726,-0.006467824430413379
338296dd-d04e-4244-ab81-9044ef46b13e,8,1767702549935,2.01195,-7.5649505,-5.484,-0.0064625,0.003025,0.004675,-0.0325851440429687,-0.1570816040039062,-0.2535920715332036,15.4211133,73.98115,0.0,0.3000755915985879,0.0,0.008530542553085356,-0.007273688175696438
338296dd-d04e-4244-ab81-9044ef46b13e,8,1767702549947,2.01195,-7.5649505,-5.484,-0.0064625,0.003025,0.004675,-0.0325851440429687,-0.1570816040039062,-0.2535920715332036,15.4211133,73.98115,0.0,0.3000755915985879,0.0,0.008530542553085356,-0.006617577069743596
338296dd-d04e-4244-ab81-9044ef46b13e,8,1767702549959,2.01195,-7.5079503,-5.44605,-0.0048125,0.006875,0.014712499,-0.0236389636993408,-0.138822317123413,-0.3201680755615239,15.4211133,73.98115,0.0,0.3497685419603397,0.0,0.016937632894681625,0.00248655816958751
338296dd-d04e-4244-ab81-9044ef46b13e,8,1767702549970,2.01195,-7.5079503,-5.44605,-0.0048125,0.006875,0.014712499,-0.0236389636993408,-0.138822317123413,-0.3201680755615239,15.4211133,73.98115,0.0,0.3497685419603397,0.0,0.016937632894681625,0.0030880897911885444
338296dd-d04e-4244-ab81-9044ef46b13e,8,1767702549981,2.22195,-7.5079503,-5.4079504,-0.0020625,0.006875,0.0218625,0.0232777595520019,0.0700268745422363,-0.2943883514404302,15.4211133,73.98115,0.0,0.3034964887963766,0.0,0.02301061575664589,0.009533977955177889
338296dd-d04e-4244-ab81-9044ef46b13e,8,1767702549992,2.22195,-7.5079503,-5.4079504,-0.0020625,0.006875,0.0218625,0.0232777595520019,0.0700268745422363,-0.2943883514404302,15.4211133,73.98115,0.0,0.3034964887963766,0.0,0.02301061575664589,0.009556888097625348
338296dd-d04e-4244-ab81-9044ef46b13e,8,1767702550004,2.3749502,-7.66095,-5.3880005,-0.001375,0.0061875,0.014025,-0.0283915996551513,0.2207772731781005,-0.1502080535888676,15.4211133,73.98115,0.0,0.268535186979085,0.0,0.015390789656479617,0.0015084828139318787
338296dd-d04e-4244-ab81-9044ef46b13e,8,1767702550015,2.3749502,-7.66095,-5.3880005,-0.001375,0.0061875,0.014025,-0.0283915996551513,0.2207772731781005,-0.1502080535888676,15.4211133,73.98115,0.0,0.268535186979085,0.0,0.015390789656479617,0.0005550895439135065
338296dd-d04e-4244-ab81-9044ef46b13e,8,1767702550026,2.31795,-7.623,-5.21595,0.001925,0.006325,0.0122375,-0.1428403854370117,0.2344093322753906,-0.2908721542358403,15.4211133,73.98115,0.0,0.3999471476075145,0.0,0.013909265122572076,-0.002441699687514045
338296dd-d04e-4244-ab81-9044ef46b13e,8,1767702550038,2.31795,-7.623,-5.21595,0.001925,0.006325,0.0122375,-0.1428403854370117,0.2344093322753906,-0.2908721542358403,15.4211133,73.98115,0.0,0.3999471476075145,0.0,0.013909265122572076,-0.004512913887610494
338296dd-d04e-4244-ab81-9044ef46b13e,8,1767702550049,2.29905,-7.5840006,-5.2930503,0.0092124995,0.013062499,0.00275,-0.0657267570495605,0.1800258159637451,-0.2820201492309575,15.4211133,73.98115,0.0,0.3409760483933083,0.0,0.016219171592979132,-0.0047776638903858715
338296dd-d04e-4244-ab81-9044ef46b13e,8,1767702550061,2.29905,-7.5840006,-5.2930503,0.0092124995,0.013062499,0.00275,-0.0657267570495605,0.1800258159637451,-0.2820201492309575,15.4211133,73.98115,0.0,0.3409760483933083,0.0,0.016219171592979132,-0.007757913839442712
338296dd-d04e-4244-ab81-9044ef46b13e,8,1767702550072,2.394,-7.6039505,-5.4079504,0.0210375,0.0193875,0.0067375,0.0380167961120605,0.211033821105957,-0.1792541122436528,15.4211133,73.98115,0.0,0.2794862916020518,0.0,0.02939124816590816,0.0021641997481441524
338296dd-d04e-4244-ab81-9044ef46b13e,8,1767702550083,2.394,-7.6039505,-5.4079504,0.0210375,0.0193875,0.0067375,0.0380167961120605,0.211033821105957,-0.1792541122436528,15.4211133,73.98115,0.0,0.2794862916020518,0.0,0.02939124816590816,-0.001195181859151417
338296dd-d04e-4244-ab81-9044ef46b13e,8,1767702550095,2.394,-7.6039505,-5.4079504,0.0210375,0.0193875,0.0067375,0.0380167961120605,0.211033821105957,-0.1792541122436528,15.4211133,73.98115,0.0,0.2794862916020518,0.0,0.02939124816590816,-0.0044982267529430405
338296dd-d04e-4244-ab81-9044ef46b13e,8,1767702550106,2.3370001,-7.623,-5.3310003,0.03025,0.021724999,0.0097624995,-0.0427358150482177,0.1828784942626953,-0.220629272460938,15.4211133,73.98115,0.0,0.2897381048779552,0.0,0.038501226967948714,0.0015141505894046248
338296dd-d04e-4244-ab81-9044ef46b13e,8,1767702550118,2.3370001,-7.623,-5.3310003,0.03025,0.021724999,0.0097624995,-0.0427358150482177,0.1828784942626953,-0.220629272460938,15.4211133,73.98115,0.0,0.2897381048779552,0.0,0.038501226967948714,-0.001267659323870375
338296dd-d04e-4244-ab81-9044ef46b13e,8,1767702550129,2.2030501,-7.66095,-5.31195,0.0383625,0.0089375,0.0045375,-0.1164004802703857,0.0641019344329834,-0.2317567443847661,15.4211133,73.98115,0.0,0.2671503665972644,0.0,0.03965033693110312,-0.0025313522528019943
338296dd-d04e-4244-ab81-9044ef46b13e,8,1767702550140,2.2030501,-7.66095,-5.31195,0.0383625,0.0089375,0.0045375,-0.1164004802703857,0.0641019344329834,-0.2317567443847661,15.4211133,73.98115,0.0,0.2671503665972644,0.0,0.03965033693110312,-0.0045899038621626705
338296dd-d04e-4244-ab81-9044ef46b13e,8,1767702550151,1.9350001,-7.5840006,-5.2540503,0.0658625,0.0210375,0.010725,-0.1918635368347168,-0.1597144603729248,-0.3864112472534184,15.4211133,73.98115,0.0,0.4600369307163108,0.0,0.06996764207474766,0.023940320636330562
338296dd-d04e-4244-ab81-9044ef46b13e,8,1767702550162,1.9350001,-7.5840006,-5.2540503,0.0658625,0.0210375,0.010725,-0.1918635368347168,-0.1597144603729248,-0.3864112472534184,15.4211133,73.98115,0.0,0.4600369307163108,0.0,0.06996764207474766,0.02228664814731272
338296dd-d04e-4244-ab81-9044ef46b13e,8,1767702550174,1.6860001,-7.3350005,-5.19705,0.050875,0.0166375,0.0155375,-0.1521444320678711,-0.3728330135345459,-0.6726031875610357,15.4211133,73.98115,0.0,0.7839307572150563,0.0,0.05573585863248184,0.0063668508123234675
338296dd-d04e-4244-ab81-9044ef46b13e,8,1767702550186,1.6860001,-7.3350005,-5.19705,0.050875,0.0166375,0.0155375,-0.1521444320678711,-0.3728330135345459,-0.6726031875610357,15.4211133,73.98115,0.0,0.7839307572150563,0.0,0.05573585863248184,0.004483032682391154
338296dd-d04e-4244-ab81-9044ef46b13e,8,1767702550197,1.8199501,-7.5840006,-5.274,0.0374,0.015262499,0.0171875,-0.185136079788208,-0.2731199264526367,-0.4006696319580083,15.4211133,73.98115,0.0,0.5190433664330999,0.0,0.043898906956494954,-0.009547562344658941
338296dd-d04e-4244-ab81-9044ef46b13e,8,1767702550208,1.8199501,-7.5840006,-5.274,0.0374,0.015262499,0.0171875,-0.185136079788208,-0.2731199264526367,-0.4006696319580083,15.4211133,73.98115,0.0,0.5190433664330999,0.0,0.043898906956494954,-0.012078721154409187
338296dd-d04e-4244-ab81-9044ef46b13e,8,1767702550220,2.0310001,-7.833,-5.46495,0.0309375,0.0067375,0.024475,-0.1095051765441894,-0.1485702991485595,-0.0471892929077153,15.4211133,73.98115,0.0,0.1905028788344069,0.0,0.04001935078808751,-0.01874020029345268
338296dd-d04e-4244-ab81-9044ef46b13e,8,1767702550232,2.0310001,-7.833,-5.46495,0.0309375,0.0067375,0.024475,-0.1095051765441894,-0.1485702991485595,-0.0471892929077153,15.4211133,73.98115,0.0,0.1905028788344069,0.0,0.04001935078808751,-0.02156224163675161
338296dd-d04e-4244-ab81-9044ef46b13e,8,1767702550243,2.2800002,-7.872,-5.31195,0.0331375,-0.022824999,0.0416625,-0.1350531578063964,0.1414515972137451,-0.0455060577392583,15.4211133,73.98115,0.0,0.2007951968518364,0.0,0.05792096677240463,-0.00620289606043601
338296dd-d04e-4244-ab81-9044ef46b13e,8,1767702550254,2.2800002,-7.872,-5.31195,0.0331375,-0.022824999,0.0416625,-0.1350531578063964,0.1414515972137451,-0.0455060577392583,15.4211133,73.98115,0.0,0.2007951968518364,0.0,0.05792096677240463,-0.008076566035766121
338296dd-d04e-4244-ab81-9044ef46b13e,8,1767702550266,2.3370001,-7.7569504,-5.235,0.03795,-0.021175,0.0523875,-0.0856046676635742,0.2205855846405029,-0.1673274612426762,15.4211133,73.98115,0.0,0.2898010327153835,0.0,0.06806638877779546,0.001258720770144966
338296dd-d04e-4244-ab81-9044ef46b13e,8,1767702550277,2.3370001,-7.7569504,-5.235,0.03795,-0.021175,0.0523875,-0.0856046676635742,0.2205855846405029,-0.1673274612426762,15.4211133,73.98115,0.0,0.2898010327153835,0.0,0.06806638877779546,0.0018354757948423946
338296dd-d04e-4244-ab81-9044ef46b13e,8,1767702550288,2.2800002,-7.66095,-5.2540503,0.0473,-0.01045,0.0521125,-0.0207958221435546,0.1607265472412109,-0.2461438751220708,15.4211133,73.98115,0.0,0.2947071367761852,0.0,0.07114917537294442,0.007052439242681412
338296dd-d04e-4244-ab81-9044ef46b13e,8,1767702550300,2.2800002,-7.66095,-5.2540503,0.0473,-0.01045,0.0521125,-0.0207958221435546,0.1607265472412109,-0.2461438751220708,15.4211133,73.98115,0.0,0.2947071367761852,0.0,0.07114917537294442,0.010690209800146504
338296dd-d04e-4244-ab81-9044ef46b13e,8,1767702550311,2.2800002,-7.66095,-5.2540503,0.0473,-0.01045,0.0521125,-0.0207958221435546,0.1607265472412109,-0.2461438751220708,15.4211133,73.98115,0.0,0.2947071367761852,0.0,0.07114917537294442,0.015504811043842848
338296dd-d04e-4244-ab81-9044ef46b13e,8,1767702550322,2.184,-7.4890504,-5.235,0.0471625,-0.0149875,0.0402875,0.0493261814117431,0.0786433219909668,-0.415728149414063,15.4211133,73.98115,0.0,0.4259668279123159,0.0,0.063812296767551,0.013545193228473442
338296dd-d04e-4244-ab81-9044ef46b13e,8,1767702550333,2.184,-7.4890504,-5.235,0.0471625,-0.0149875,0.0402875,0.0493261814117431,0.0786433219909668,-0.415728149414063,15.4211133,73.98115,0.0,0.4259668279123159,0.0,0.063812296767551,0.01861028451837785
338296dd-d04e-4244-ab81-9044ef46b13e,8,1767702550344,2.394,-7.431,-5.274,0.04235,-0.0182875,0.03135,0.1970608234405517,0.2522835731506347,-0.3938642120361333,15.4211133,73.98115,0.0,0.5075519549165033,0.0,0.05577434586124699,0.014259367317610282
338296dd-d04e-4244-ab81-9044ef46b13e,8,1767702550356,2.394,-7.431,-5.274,0.04235,-0.0182875,0.03135,0.1970608234405517,0.2522835731506347,-0.3938642120361333,15.4211133,73.98115,0.0,0.5075519549165033,0.0,0.05577434586124699,0.01541914972264673
338296dd-d04e-4244-ab81-9044ef46b13e,8,1767702550367,2.66295,-7.5270004,-5.2930503,0.0363,-0.010175,0.0270875,0.253342866897583,0.4861187934875488,-0.2463746643066411,15.4211133,73.98115,0.0,0.6009946462339634,0.0,0.04642147435454846,0.003601208556477875
338296dd-d04e-4244-ab81-9044ef46b13e,8,1767702550378,2.66295,-7.5270004,-5.2930503,0.0363,-0.010175,0.0270875,0.253342866897583,0.4861187934875488,-0.2463746643066411,15.4211133,73.98115,0.0,0.6009946462339634,0.0,0.04642147435454846,-0.0033890638976761898
338296dd-d04e-4244-ab81-9044ef46b13e,8,1767702550390,2.66295,-7.5270004,-5.2930503,0.0363,-0.010175,0.0270875,0.253342866897583,0.4861187934875488,-0.2463746643066411,15.4211133,73.98115,0.0,0.6009946462339634,0.0,0.04642147435454846,-0.015471099233191413
338296dd-d04e-4244-ab81-9044ef46b13e,8,1767702550401,2.91195,-7.6039505,-5.3310003,0.0237875,0.000825,0.0158125,0.3198423385620117,0.6803596019744873,-0.1067081069946294,15.4211133,73.98115,0.0,0.7593253121252291,0.0,0.028575530397527183,-0.05061681541832067
338296dd-d04e-4244-ab81-9044ef46b13e,8,1767702550412,3.00705,-7.5079503,-5.3689504,0.0088,0.0394625,-0.0397375,0.4257590770721435,0.7190368175506592,-0.1384444808959966,15.4211133,73.98115,0.0,0.8470251536957243,0.0,0.05669036789878859,-0.04464589889674295
338296dd-d04e-4244-ab81-9044ef46b13e,8,1767702550424,3.00705,-7.5079503,-5.3689504,0.0088,0.0394625,-0.0397375,0.4257590770721435,0.7190368175506592,-0.1384444808959966,15.4211133,73.98115,0.0,0.8470251536957243,0.0,0.05669036789878859,-0.07076177844311246
338296dd-d04e-4244-ab81-9044ef46b13e,8,1767702550435,2.9310002,-7.3159504,-5.3880005,0.007975,0.1139875,-0.1500125,0.5074136257171631,0.6034409999847412,-0.2956500625610356,15.4211133,73.98115,0.0,0.8420324147670124,0.0,0.18857492128461834,0.03234147544346489
338296dd-d04e-4244-ab81-9044ef46b13e,8,1767702550446,2.9310002,-7.3159504,-5.3880005,0.007975,0.1139875,-0.1500125,0.5074136257171631,0.6034409999847412,-0.2956500625610356,15.4211133,73.98115,0.0,0.8420324147670124,0.0,0.18857492128461834,0.00251488571849854
338296dd-d04e-4244-ab81-9044ef46b13e,8,1767702550457,2.8540502,-7.1629505,-5.427,-0.0006875,0.1722875,-0.20955,0.5725810527801514,0.4611001014709472,-0.4097171401977544,15.4211133,73.98115,0.0,0.8416237286051117,0.0,0.27128335336415316,0.056124154132734826
338296dd-d04e-4244-ab81-9044ef46b13e,8,1767702550469,2.8540502,-7.1629505,-5.427,-0.0006875,0.1722875,-0.20955,0.5725810527801514,0.4611001014709472,-0.4097171401977544,15.4211133,73.98115,0.0,0.8416237286051117,0.0,0.27128335336415316,0.029499333524624728
338296dd-d04e-4244-ab81-9044ef46b13e,8,1767702550480,2.529,-7.182,-5.5800004,-0.0297,0.1951125,-0.2270125,0.5193405151367188,0.0415501594543457,-0.3843980407714849,15.4211133,73.98115,0.0,0.6474587555683451,0.0,0.3008083323521807,0.03642426872610122
338296dd-d04e-4244-ab81-9044ef46b13e,8,1767702550491,2.529,-7.182,-5.5800004,-0.0297,0.1951125,-0.2270125,0.5193405151367188,0.0415501594543457,-0.3843980407714849,15.4211133,73.98115,0.0,0.6474587555683451,0.0,0.3008083323521807,0.01906252561028132
338296dd-d04e-4244-ab81-9044ef46b13e,8,1767702550503,2.529,-7.182,-5.5800004,-0.0297,0.1951125,-0.2270125,0.5193405151367188,0.0415501594543457,-0.3843980407714849,15.4211133,73.98115,0.0,0.6474587555683451,0.0,0.3008083323521807,0.007721675815219772
338296dd-d04e-4244-ab81-9044ef46b13e,8,1767702550515,2.4139502,-7.3740005,-5.71395,-0.0677875,0.165275,-0.2253625,0.411785364151001,-0.174224853515625,-0.1843915557861333,15.4211133,73.98115,0.0,0.4836545580853593,0.0,0.2875747332216445,-0.01052029064266123
338296dd-d04e-4244-ab81-9044ef46b13e,8,1767702550526,2.4139502,-7.3740005,-5.71395,-0.0677875,0.165275,-0.2253625,0.411785364151001,-0.174224853515625,-0.1843915557861333,15.4211133,73.98115,0.0,0.4836545580853593,0.0,0.2875747332216445,-0.009343032066101885
338296dd-d04e-4244-ab81-9044ef46b13e,8,1767702550538,2.394,-7.4500504,-5.59905,-0.123475,0.1007875,-0.205975,0.2287213802337646,-0.188425064086914,-0.1925149536132817,15.4211133,73.98115,0.0,0.3533829111840583,0.0,0.26044173322693503,-0.029661990671232326
338296dd-d04e-4244-ab81-9044ef46b13e,8,1767702550549,2.394,-7.4500504,-5.59905,-0.123475,0.1007875,-0.205975,0.2287213802337646,-0.188425064086914,-0.1925149536132817,15.4211133,73.98115,0.0,0.3533829111840583,0.0,0.26044173322693503,-0.018075160090536842
338296dd-d04e-4244-ab81-9044ef46b13e,8,1767702550561,2.394,-7.3740005,-5.484,-0.1452,0.06875,-0.1804,0.143218994140625,-0.171417236328125,-0.3162370300292974,15.4211133,73.98115,0.0,0.3871710324324062,0.0,0.2415652344605904,-0.021669208359449403
338296dd-d04e-4244-ab81-9044ef46b13e,8,1767702550572,2.394,-7.3740005,-5.484,-0.1452,0.06875,-0.1804,0.143218994140625,-0.171417236328125,-0.3162370300292974,15.4211133,73.98115,0.0,0.3871710324324062,0.0,0.2415652344605904,-0.0038784489003827077
338296dd-d04e-4244-ab81-9044ef46b13e,8,1767702550583,2.3749502,-7.3350005,-5.44605,-0.1527625,0.0584375,-0.15125,0.084038496017456,-0.1949002742767334,-0.3729949569702153,15.4211133,73.98115,0.0,0.4291547781992351,0.0,0.22277317009123876,-0.003575607583733298
338296dd-d04e-4244-ab81-9044ef46b13e,8,1767702550595,2.3749502,-7.3350005,-5.44605,-0.1527625,0.0584375,-0.15125,0.084038496017456,-0.1949002742767334,-0.3729949569702153,15.4211133,73.98115,0.0,0.4291547781992351,0.0,0.22277317009123876,0.015679501005111986
338296dd-d04e-4244-ab81-9044ef46b13e,8,1767702550606,2.3749502,-7.3549504,-5.44605,-0.1441,0.0622875,-0.106975,0.0245251655578613,-0.2104244232177734,-0.3574729537963872,15.4211133,73.98115,0.0,0.4155319895364099,0.0,0.18996892714665206,0.0012654999476867561
338296dd-d04e-4244-ab81-9044ef46b13e,8,1767702550618,2.3749502,-7.3549504,-5.44605,-0.1441,0.0622875,-0.106975,0.0245251655578613,-0.2104244232177734,-0.3574729537963872,15.4211133,73.98115,0.0,0.4155319895364099,0.0,0.18996892714665206,0.01792605973924485
338296dd-d04e-4244-ab81-9044ef46b13e,8,1767702550629,2.31795,-7.3159504,-5.3500504,-0.1351625,0.0518375,-0.07975,-0.0765511989593505,-0.2290964126586914,-0.4579539871215825,15.4211133,73.98115,0.0,0.5177519740916012,0.0,0.16527580074681228,0.007486410349644861
338296dd-d04e-4244-ab81-9044ef46b13e,8,1767702550641,2.31795,-7.3159504,-5.3500504,-0.1351625,0.0518375,-0.07975,-0.0765511989593505,-0.2290964126586914,-0.4579539871215825,15.4211133,73.98115,0.0,0.5177519740916012,0.0,0.16527580074681228,0.018859223652590944
338296dd-d04e-4244-ab81-9044ef46b13e,8,1767702550652,2.2800002,-7.39305,-5.3689504,-0.1199,0.0286,-0.045375,-0.1578485965728759,-0.2748374938964844,-0.3982644653320317,15.4211133,73.98115,0.0,0.5089856695797395,0.0,0.13135014512744173,-0.006835732522837424
338296dd-d04e-4244-ab81-9044ef46b13e,8,1767702550664,2.2800002,-7.39305,-5.3689504,-0.1199,0.0286,-0.045375,-0.1578485965728759,-0.2748374938964844,-0.3982644653320317,15.4211133,73.98115,0.0,0.5089856695797395,0.0,0.13135014512744173,-0.001795080768980319
338296dd-d04e-4244-ab81-9044ef46b13e,8,1767702550675,2.31795,-7.4500504,-5.3689504,-0.1079375,-0.0187,0.026675,-0.2039399147033691,-0.2365787029266357,-0.3440480804443364,15.4211133,73.98115,0.0,0.464682744617335,0.0,0.11274639475943345,-0.018388564567170303
338296dd-d04e-4244-ab81-9044ef46b13e,8,1767702550687,2.31795,-7.4500504,-5.3689504,-0.1079375,-0.0187,0.026675,-0.2039399147033691,-0.2365787029266357,-0.3440480804443364,15.4211133,73.98115,0.0,0.464682744617335,0.0,0.11274639475943345,-0.01905603930316408
338296dd-d04e-4244-ab81-9044ef46b13e,8,1767702550698,2.29905,-7.5840006,-5.3880005,-0.0895125,-0.0583,0.0864875,-0.2932732105255127,-0.2393686771392822,-0.2345119094848637,15.4211133,73.98115,0.0,0.4453115485787322,0.0,0.1374462269853196,0.0028194166994319736
338296dd-d04e-4244-ab81-9044ef46b13e,8,1767702550709,2.29905,-7.5840006,-5.3880005,-0.0895125,-0.0583,0.0864875,-0.2932732105255127,-0.2393686771392822,-0.2345119094848637,15.4211133,73.98115,0.0,0.4453115485787322,0.0,0.1374462269853196,-0.0015083837875358547
338296dd-d04e-4244-ab81-9044ef46b13e,8,1767702550721,2.22195,-7.623,-5.3880005,-0.060225,-0.0820875,0.1194875,-0.3421945571899414,-0.2710144519805908,-0.2242189025878911,15.4211133,73.98115,0.0,0.4907342095579625,0.0,0.1569798424559663,0.012934691621493747
338296dd-d04e-4244-ab81-9044ef46b13e,8,1767702550732,2.22195,-7.623,-5.3880005,-0.060225,-0.0820875,0.1194875,-0.3421945571899414,-0.2710144519805908,-0.2242189025878911,15.4211133,73.98115,0.0,0.4907342095579625,0.0,0.1569798424559663,0.007856498975903368
338296dd-d04e-4244-ab81-9044ef46b13e,8,1767702550743,2.1649501,-7.5649505,-5.3500504,-0.0276375,-0.0716375,0.13365,-0.3406169414520263,-0.2642085552215576,-0.3045936203002934,15.4211133,73.98115,0.0,0.5278288879779462,0.0,0.154136580059699,0.0007003758116943397
338296dd-d04e-4244-ab81-9044ef46b13e,8,1767702550754,2.1649501,-7.5649505,-5.3500504,-0.0276375,-0.0716375,0.13365,-0.3406169414520263,-0.2642085552215576,-0.3045936203002934,15.4211133,73.98115,0.0,0.5278288879779462,0.0,0.154136580059699,-0.0021722932435631467
338296dd-d04e-4244-ab81-9044ef46b13e,8,1767702550765,2.1649501,-7.5649505,-5.3500504,-0.0276375,-0.0716375,0.13365,-0.3406169414520263,-0.2642085552215576,-0.3045936203002934,15.4211133,73.98115,0.0,0.5278288879779462,0.0,0.154136580059699,-0.0030595108931060857
338296dd-d04e-4244-ab81-9044ef46b13e,8,1767702550776,2.29905,-7.431,-5.4079504,0.0253,-0.04235,0.14355,-0.1545841693878173,-0.1351654529571533,-0.3385062789916997,15.4211133,73.98115,0.0,0.3959197721953783,0.0,0.15179003590486434,-0.003935525775873497
338296dd-d04e-4244-ab81-9044ef46b13e,8,1767702550788,2.29905,-7.431,-5.4079504,0.0253,-0.04235,0.14355,-0.1545841693878173,-0.1351654529571533,-0.3385062789916997,15.4211133,73.98115,0.0,0.3959197721953783,0.0,0.15179003590486434,5.977907396854106e-05
338296dd-d04e-4244-ab81-9044ef46b13e,8,1767702550799,2.35605,-7.431,-5.4079504,0.0485375,-0.02475,0.131725,-0.1118762493133544,-0.0558757781982421,-0.3231130218505864,15.4211133,73.98115,0.0,0.3464685016550575,0.0,0.1425479815053514,-0.0027193078010541065
338296dd-d04e-4244-ab81-9044ef46b13e,8,1767702550810,2.35605,-7.431,-5.4079504,0.0485375,-0.02475,0.131725,-0.1118762493133544,-0.0558757781982421,-0.3231130218505864,15.4211133,73.98115,0.0,0.3464685016550575,0.0,0.1425479815053514,0.005926435045780596
338296dd-d04e-4244-ab81-9044ef46b13e,8,1767702550821,2.4709501,-7.4500504,-5.5030503,0.0583,-0.0237875,0.1098625,0.0072312355041503,0.0263707637786865,-0.2239842987060551,15.4211133,73.98115,0.0,0.2256472335660934,0.0,0.12662742223744428,0.00033453401804259557
338296dd-d04e-4244-ab81-9044ef46b13e,8,1767702550832,2.4709501,-7.4500504,-5.5030503,0.0583,-0.0237875,0.1098625,0.0072312355041503,0.0263707637786865,-0.2239842987060551,15.4211133,73.98115,0.0,0.2256472335660934,0.0,0.12662742223744428,0.011660900680512468
338296dd-d04e-4244-ab81-9044ef46b13e,9,1767702550843,2.60505,-7.3159504,-5.5219502,0.0529375,-0.0350625,0.069025,0.171396255493164,0.1477189064025879,-0.2837119674682622,15.4211133,73.98115,0.0,0.3628912126113923,0.0,0.09378810392315222,-0.009679109462580266
338296dd-d04e-4244-ab81-9044ef46b13e,9,1767702550854,2.60505,-7.3159504,-5.5219502,0.0529375,-0.0350625,0.069025,0.171396255493164,0.1477189064025879,-0.2837119674682622,15.4211133,73.98115,0.0,0.3628912126113923,0.0,0.09378810392315222,0.0010888281515721342
338296dd-d04e-4244-ab81-9044ef46b13e,9,1767702550865,2.60505,-7.3159504,-5.5219502,0.0529375,-0.0350625,0.069025,0.171396255493164,0.1477189064025879,-0.2837119674682622,15.4211133,73.98115,0.0,0.3628912126113923,0.0,0.09378810392315222,0.01021246729018816
338296dd-d04e-4244-ab81-9044ef46b13e,9,1767702550876,2.66295,-7.25895,-5.5030503,0.048675,-0.0495,0.039049998,0.2271406650543213,0.2141454219818115,-0.3247609710693364,15.4211133,73.98115,0.0,0.4504673482140364,0.0,0.07965179199992932,0.0027111494385067486
338296dd-d04e-4244-ab81-9044ef46b13e,9,1767702550887,2.66295,-7.25895,-5.5030503,0.048675,-0.0495,0.039049998,0.2271406650543213,0.2141454219818115,-0.3247609710693364,15.4211133,73.98115,0.0,0.4504673482140364,0.0,0.07965179199992932,0.006159403452815085
338296dd-d04e-4244-ab81-9044ef46b13e,9,1767702550897,2.66295,-7.2780004,-5.484,0.038225,-0.047575,-0.0276375,0.2094991207122802,0.2277600765228271,-0.3211064910888677,15.4211133,73.98115,0.0,0.4459528143832122,0.0,0.06699524353452266,-0.006715966189477908
338296dd-d04e-4244-ab81-9044ef46b13e,9,1767702550908,2.66295,-7.2780004,-5.484,0.038225,-0.047575,-0.0276375,0.2094991207122802,0.2277600765228271,-0.3211064910888677,15.4211133,73.98115,0.0,0.4459528143832122,0.0,0.06699524353452266,-0.0108061072344933
338296dd-d04e-4244-ab81-9044ef46b13e,9,1767702550919,2.7769501,-7.3159504,-5.5030503,0.025575,-0.0378125,-0.0724625,0.2376961708068847,0.3167967796325683,-0.2516885375976567,15.4211133,73.98115,0.0,0.4692619621915555,0.0,0.08564274451172148,-9.808712439107918e-06
338296dd-d04e-4244-ab81-9044ef46b13e,9,1767702550930,2.7769501,-7.3159504,-5.5030503,0.025575,-0.0378125,-0.0724625,0.2376961708068847,0.3167967796325683,-0.2516885375976567,15.4211133,73.98115,0.0,0.4692619621915555,0.0,0.08564274451172148,-0.011184457439952876
338296dd-d04e-4244-ab81-9044ef46b13e,9,1767702550941,2.70105,-7.4119506,-5.5420504,0.014575,-0.0336875,-0.10615,0.167715311050415,0.2191114425659179,-0.1730466461181645,15.4211133,73.98115,0.0,0.325704454309118,0.0,0.11231696568751312,0.0017402479801975135
338296dd-d04e-4244-ab81-9044ef46b13e,9,1767702550952,2.70105,-7.4119506,-5.5420504,0.014575,-0.0336875,-0.10615,0.167715311050415,0.2191114425659179,-0.1730466461181645,15.4211133,73.98115,0.0,0.325704454309118,0.0,0.11231696568751312,-0.013571259778437086
338296dd-d04e-4244-ab81-9044ef46b13e,9,1767702550963,2.66295,-7.3549504,-5.5219502,-0.005225,-0.0345125,-0.1420375,0.1621878147125244,0.1733326911926269,-0.2380529022216801,15.4211133,73.98115,0.0,0.3361819348707892,0.0,0.14626368205231266,0.0047042230435128925
338296dd-d04e-4244-ab81-9044ef46b13e,9,1767702550974,2.66295,-7.3549504,-5.5219502,-0.005225,-0.0345125,-0.1420375,0.1621878147125244,0.1733326911926269,-0.2380529022216801,15.4211133,73.98115,0.0,0.3361819348707892,0.0,0.14626368205231266,-0.010033048794772742
338296dd-d04e-4244-ab81-9044ef46b13e,9,1767702550985,2.4520502,-7.3549504,-5.3880005,-0.01595,-0.04235,-0.170225,-0.0201079845428466,0.0226352214813232,-0.3687329864501958,15.4211133,73.98115,0.0,0.3699739174460332,0.0,0.17613766100695216,0.007309707272712399
338296dd-d04e-4244-ab81-9044ef46b13e,9,1767702550995,2.4520502,-7.3549504,-5.3880005,-0.01595,-0.04235,-0.170225,-0.0201079845428466,0.0226352214813232,-0.3687329864501958,15.4211133,73.98115,0.0,0.3699739174460332,0.0,0.17613766100695216,-0.0018828117795678825
338296dd-d04e-4244-ab81-9044ef46b13e,9,1767702551007,2.4520502,-7.3549504,-5.3880005,-0.01595,-0.04235,-0.170225,-0.0201079845428466,0.0226352214813232,-0.3687329864501958,15.4211133,73.98115,0.0,0.3699739174460332,0.0,0.17613766100695216,-0.006854476914688318
338296dd-d04e-4244-ab81-9044ef46b13e,9,1767702551018,2.26005,-7.4689503,-5.44605,-0.022824999,-0.0485375,-0.1896125,-0.1340620517730713,-0.1914267539978027,-0.2969613647460942,15.4211133,73.98115,0.0,0.3778926937949499,0.0,0.19705270777599074,0.013848879778178898
338296dd-d04e-4244-ab81-9044ef46b13e,9,1767702551028,2.26005,-7.4689503,-5.44605,-0.022824999,-0.0485375,-0.1896125,-0.1340620517730713,-0.1914267539978027,-0.2969613647460942,15.4211133,73.98115,0.0,0.3778926937949499,0.0,0.19705270777599074,0.018530046604979315
338296dd-d04e-4244-ab81-9044ef46b13e,9,1767702551040,2.2800002,-7.5079503,-5.484,-0.0210375,-0.0473,-0.1667875,-0.1429517269134521,-0.2054593563079834,-0.2402902221679692,15.4211133,73.98115,0.0,0.3469699326909481,0.0,0.17463658426143133,0.005389148440341772
338296dd-d04e-4244-ab81-9044ef46b13e,9,1767702551051,2.2800002,-7.5079503,-5.484,-0.0210375,-0.0473,-0.1667875,-0.1429517269134521,-0.2054593563079834,-0.2402902221679692,15.4211133,73.98115,0.0,0.3469699326909481,0.0,0.17463658426143133,0.01854520916458941
338296dd-d04e-4244-ab81-9044ef46b13e,9,1767702551062,2.2800002,-7.431,-5.5219502,-0.02035,-0.04015,-0.13213749,-0.0839068889617919,-0.234476089477539,-0.2785726165771489,15.4211133,73.98115,0.0,0.3736604143584983,0.0,0.139593915567621,-0.0005278315481827423
338296dd-d04e-4244-ab81-9044ef46b13e,9,1767702551073,2.2800002,-7.431,-5.5219502,-0.02035,-0.04015,-0.13213749,-0.0839068889617919,-0.234476089477539,-0.2785726165771489,15.4211133,73.98115,0.0,0.3736604143584983,0.0,0.139593915567621,0.016932988306376913
338296dd-d04e-4244-ab81-9044ef46b13e,9,1767702551084,2.29905,-7.3740005,-5.5030503,-0.0196625,-0.027775,-0.087037496,-0.0679118633270263,-0.2183952331542968,-0.3288198089599614,15.4211133,73.98115,0.0,0.4005383449927533,0.0,0.09345367965575255,-0.011704626772136927
338296dd-d04e-4244-ab81-9044ef46b13e,9,1767702551096,2.29905,-7.3740005,-5.5030503,-0.0196625,-0.027775,-0.087037496,-0.0679118633270263,-0.2183952331542968,-0.3288198089599614,15.4211133,73.98115,0.0,0.4005383449927533,0.0,0.09345367965575255,0.004407256648236945
338296dd-d04e-4244-ab81-9044ef46b13e,9,1767702551107,2.29905,-7.3350005,-5.484,-0.022,-0.0215875,-0.0336875,-0.0659091472625732,-0.2147994041442871,-0.3701034164428716,15.4211133,73.98115,0.0,0.4329657475786115,0.0,0.04566035274173865,-0.029936816686114132
338296dd-d04e-4244-ab81-9044ef46b13e,9,1767702551118,2.29905,-7.3350005,-5.484,-0.022,-0.0215875,-0.0336875,-0.0659091472625732,-0.2147994041442871,-0.3701034164428716,15.4211133,73.98115,0.0,0.4329657475786115,0.0,0.04566035274173865,-0.020134070993104432
338296dd-d04e-4244-ab81-9044ef46b13e,9,1767702551129,2.3370001,-7.3549504,-5.44605,-0.0215875,-0.0204875,0.038225,-0.0977368354797363,-0.1614995002746582,-0.3664441680908208,15.4211133,73.98115,0.0,0.4122085709035307,0.0,0.04844490104747867,-0.011792869256867546
338296dd-d04e-4244-ab81-9044ef46b13e,9,1767702551140,2.3370001,-7.3549504,-5.44605,-0.0215875,-0.0204875,0.038225,-0.0977368354797363,-0.1614995002746582,-0.3664441680908208,15.4211133,73.98115,0.0,0.4122085709035307,0.0,0.04844490104747867,-0.010643343903394548
338296dd-d04e-4244-ab81-9044ef46b13e,9,1767702551151,2.3370001,-7.4119506,-5.4079504,-0.0188375,-0.0165,0.065725,-0.157564640045166,-0.1315686702728271,-0.3441453552246099,15.4211133,73.98115,0.0,0.4007155553663915,0.0,0.0703340389231985,0.008272229363094592
338296dd-d04e-4244-ab81-9044ef46b13e,9,1767702551163,2.3370001,-7.4119506,-5.4079504,-0.0188375,-0.0165,0.065725,-0.157564640045166,-0.1315686702728271,-0.3441453552246099,15.4211133,73.98115,0.0,0.4007155553663915,0.0,0.0703340389231985,0.0018636612867317876
338296dd-d04e-4244-ab81-9044ef46b13e,9,1767702551174,2.3370001,-7.4119506,-5.4079504,-0.0188375,-0.0165,0.065725,-0.157564640045166,-0.1315686702728271,-0.3441453552246099,15.4211133,73.98115,0.0,0.4007155553663915,0.0,0.0703340389231985,-0.006970564911688298
338296dd-d04e-4244-ab81-9044ef46b13e,9,1767702551185,2.3749502,-7.4500504,-5.4079504,-0.014025,-0.0132,0.0952875,-0.1621792316436767,-0.0803813934326171,-0.3043780899047856,15.4211133,73.98115,0.0,0.3541317455422322,0.0,0.09721444481788702,0.009866367058990666
338296dd-d04e-4244-ab81-9044ef46b13e,9,1767702551196,2.3749502,-7.4500504,-5.4079504,-0.014025,-0.0132,0.0952875,-0.1621792316436767,-0.0803813934326171,-0.3043780899047856,15.4211133,73.98115,0.0,0.3541317455422322,0.0,0.09721444481788702,-9.503607220612696e-05
338296dd-d04e-4244-ab81-9044ef46b13e,9,1767702551207,2.35605,-7.4890504,-5.44605,-0.003025,-0.0048125,0.119075,-0.1558642387390136,-0.0929079055786132,-0.2568135833740239,15.4211133,73.98115,0.0,0.3144499267643475,0.0,0.1192105968706222,0.01325274558345494
338296dd-d04e-4244-ab81-9044ef46b13e,9,1767702551219,2.35605,-7.4890504,-5.44605,-0.003025,-0.0048125,0.119075,-0.1558642387390136,-0.0929079055786132,-0.2568135833740239,15.4211133,73.98115,0.0,0.3144499267643475,0.0,0.1192105968706222,0.006964244682679644
338296dd-d04e-4244-ab81-9044ef46b13e,9,1767702551230,2.35605,-7.4890504,-5.46495,0.006875,-0.0056375,0.1260875,-0.1279609203338623,-0.079355239868164,-0.2454896545410161,15.4211133,73.98115,0.0,0.2879868429527473,0.0,0.12640057233849852,0.01098882600907161
338296dd-d04e-4244-ab81-9044ef46b13e,9,1767702551242,2.35605,-7.4890504,-5.46495,0.006875,-0.0056375,0.1260875,-0.1279609203338623,-0.079355239868164,-0.2454896545410161,15.4211133,73.98115,0.0,0.2879868429527473,0.0,0.12640057233849852,0.011360658329704029
338296dd-d04e-4244-ab81-9044ef46b13e,9,1767702551253,2.433,-7.4500504,-5.46495,0.0133375,-0.0133375,0.1093125,-0.0611803531646728,0.0109555721282958,-0.2557025527954106,15.4211133,73.98115,0.0,0.2631479729735765,0.0,0.11092790662745781,-0.00016395605888148886
338296dd-d04e-4244-ab81-9044ef46b13e,9,1767702551264,2.433,-7.4500504,-5.46495,0.0133375,-0.0133375,0.1093125,-0.0611803531646728,0.0109555721282958,-0.2557025527954106,15.4211133,73.98115,0.0,0.2631479729735765,0.0,0.11092790662745781,0.007038626849276435
338296dd-d04e-4244-ab81-9044ef46b13e,9,1767702551276,2.433,-7.4119506,-5.44605,0.014162499,-0.01375,0.0826375,-0.0350580215454101,0.0360352993011474,-0.2961421585083013,15.4211133,73.98115,0.0,0.300379402949599,0.0,0.08496231684797091,-0.009100910837747535
338296dd-d04e-4244-ab81-9044ef46b13e,9,1767702551288,2.433,-7.4119506,-5.44605,0.014162499,-0.01375,0.0826375,-0.0350580215454101,0.0360352993011474,-0.2961421585083013,15.4211133,73.98115,0.0,0.300379402949599,0.0,0.08496231684797091,0.00248878839500896
338296dd-d04e-4244-ab81-9044ef46b13e,9,1767702551300,2.433,-7.39305,-5.3880005,0.0114124995,-0.01485,0.05995,-0.0512168407440185,0.0731270313262939,-0.3443084335327153,15.4211133,73.98115,0.0,0.3556951291318834,0.0,0.06280740517516625,-0.007301880997419197
338296dd-d04e-4244-ab81-9044ef46b13e,9,1767702551311,2.433,-7.39305,-5.3880005,0.0114124995,-0.01485,0.05995,-0.0512168407440185,0.0731270313262939,-0.3443084335327153,15.4211133,73.98115,0.0,0.3556951291318834,0.0,0.06280740517516625,0.004824846406022576
338296dd-d04e-4244-ab81-9044ef46b13e,9,1767702551323,2.29905,-7.4119506,-5.3689504,0.0077,0.00275,0.0224125,-0.1109488010406494,-0.0286839008331298,-0.3741574859619145,15.4211133,73.98115,0.0,0.391313463761091,0.0,0.02385733967252007,-0.023169964847337948
338296dd-d04e-4244-ab81-9044ef46b13e,9,1767702551335,2.29905,-7.4119506,-5.3689504,0.0077,0.00275,0.0224125,-0.1109488010406494,-0.0286839008331298,-0.3741574859619145,15.4211133,73.98115,0.0,0.391313463761091,0.0,0.02385733967252007,-0.014157090554859168
338296dd-d04e-4244-ab81-9044ef46b13e,9,1767702551345,2.22195,-7.4689503,-5.427,0.011825,0.0132,0.015262499,-0.12479829788208,-0.1172382831573486,-0.3155112838745122,15.4211133,73.98115,0.0,0.3589802229149819,0.0,0.023388341128113405,-0.008102873743410318
338296dd-d04e-4244-ab81-9044ef46b13e,9,1767702551357,2.22195,-7.4689503,-5.427,0.011825,0.0132,0.015262499,-0.12479829788208,-0.1172382831573486,-0.3155112838745122,15.4211133,73.98115,0.0,0.3589802229149819,0.0,0.023388341128113405,-0.00436152548762692
338296dd-d04e-4244-ab81-9044ef46b13e,9,1767702551368,2.26005,-7.5270004,-5.46495,0.0226875,0.0191125,0.0188375,-0.1139307022094726,-0.0952985286712646,-0.2388358688354497,15.4211133,73.98115,0.0,0.2812553763312543,0.0,0.03514059929412132,0.008314639817310857
338296dd-d04e-4244-ab81-9044ef46b13e,9,1767702551379,2.26005,-7.5270004,-5.46495,0.0226875,0.0191125,0.0188375,-0.1139307022094726,-0.0952985286712646,-0.2388358688354497,15.4211133,73.98115,0.0,0.2812553763312543,0.0,0.03514059929412132,0.006616989932894305
338296dd-d04e-4244-ab81-9044ef46b13e,9,1767702551391,2.26005,-7.5270004,-5.46495,0.0226875,0.0191125,0.0188375,-0.1139307022094726,-0.0952985286712646,-0.2388358688354497,15.4211133,73.98115,0.0,0.2812553763312543,0.0,0.03514059929412132,0.002679476930962672
338296dd-d04e-4244-ab81-9044ef46b13e,9,1767702551403,2.26005,-7.5079503,-5.3880005,0.02255,0.0254375,0.0259875,-0.1450245380401611,-0.0628457069396972,-0.2977595901489263,15.4211133,73.98115,0.0,0.3371089928200804,0.0,0.04278924003181173,0.004660297001230896
338296dd-d04e-4244-ab81-9044ef46b13e,9,1767702551414,2.2800002,-7.4119506,-5.3880005,0.023375,0.034925,0.0413875,-0.0687243938446044,-0.0466477870941162,-0.3675914382934575,15.4211133,73.98115,0.0,0.376858758498113,0.0,0.05898365372075555,0.014032429599515861
338296dd-d04e-4244-ab81-9044ef46b13e,9,1767702551426,2.2800002,-7.4119506,-5.3880005,0.023375,0.034925,0.0413875,-0.0687243938446044,-0.0466477870941162,-0.3675914382934575,15.4211133,73.98115,0.0,0.376858758498113,0.0,0.05898365372075555,0.006640511557062203
338296dd-d04e-4244-ab81-9044ef46b13e,9,1767702551438,2.2800002,-7.3740005,-5.427,0.015262499,0.0341,0.0567875,-0.0084483623504638,-0.0632672309875488,-0.3748231506347661,15.4211133,73.98115,0.0,0.3802190310794676,0.0,0.067974804390855,0.008216876761281055
338296dd-d04e-4244-ab81-9044ef46b13e,9,1767702551450,2.2800002,-7.3740005,-5.427,0.015262499,0.0341,0.0567875,-0.0084483623504638,-0.0632672309875488,-0.3748231506347661,15.4211133,73.98115,0.0,0.3802190310794676,0.0,0.067974804390855,0.0012547107825244353
338296dd-d04e-4244-ab81-9044ef46b13e,9,1767702551461,2.2800002,-7.3740005,-5.427,0.015262499,0.0341,0.0567875,-0.0084483623504638,-0.0632672309875488,-0.3748231506347661,15.4211133,73.98115,0.0,0.3802190310794676,0.0,0.067974804390855,-0.0048692831215657
338296dd-d04e-4244-ab81-9044ef46b13e,9,1767702551472,2.29905,-7.431,-5.44605,0.0078375,0.0341,0.0606375,-0.0153429508209228,-0.0486729145050048,-0.3146176910400395,15.4211133,73.98115,0.0,0.3187299017376163,0.0,0.0700081624705291,-0.007831909536670631
338296dd-d04e-4244-ab81-9044ef46b13e,9,1767702551484,2.29905,-7.431,-5.44605,0.0078375,0.0341,0.0606375,-0.0153429508209228,-0.0486729145050048,-0.3146176910400395,15.4211133,73.98115,0.0,0.3187299017376163,0.0,0.0700081624705291,-0.011502158647312818
338296dd-d04e-4244-ab81-9044ef46b13e,9,1767702551495,2.394,-7.5079503,-5.5030503,-0.00165,0.0427625,0.0644875,0.017148733139038,0.019132375717163,-0.1983666992187505,15.4211133,73.98115,0.0,0.2000236841171536,0.0,0.07739503577426655,-0.006345466179054028
338296dd-d04e-4244-ab81-9044ef46b13e,9,1767702551506,2.394,-7.5079503,-5.5030503,-0.00165,0.0427625,0.0644875,0.017148733139038,0.019132375717163,-0.1983666992187505,15.4211133,73.98115,0.0,0.2000236841171536,0.0,0.07739503577426655,-0.007094804112364006
338296dd-d04e-4244-ab81-9044ef46b13e,9,1767702551518,2.4139502,-7.4689503,-5.5030503,-0.00715,0.0488125,0.0664125,0.0530059337615966,0.0390253067016601,-0.2239900207519536,15.4211133,73.98115,0.0,0.2334612022875707,0.0,0.0827309060297299,-0.001052115392101985
338296dd-d04e-4244-ab81-9044ef46b13e,9,1767702551529,2.4139502,-7.4689503,-5.5030503,-0.00715,0.0488125,0.0664125,0.0530059337615966,0.0390253067016601,-0.2239900207519536,15.4211133,73.98115,0.0,0.2334612022875707,0.0,0.0827309060297299,0.0010258551280062653
338296dd-d04e-4244-ab81-9044ef46b13e,9,1767702551541,2.4520502,-7.4689503,-5.46495,-0.0097624995,0.0532125,0.066275,0.0425519943237304,0.090538740158081,-0.2364183044433598,15.4211133,73.98115,0.0,0.2567129727267644,0.0,0.08555262811706897,0.007154024277687758
338296dd-d04e-4244-ab81-9044ef46b13e,9,1767702551552,2.4520502,-7.4689503,-5.46495,-0.0097624995,0.0532125,0.066275,0.0425519943237304,0.090538740158081,-0.2364183044433598,15.4211133,73.98115,0.0,0.2567129727267644,0.0,0.08555262811706897,0.011490493458551016
338296dd-d04e-4244-ab81-9044ef46b13e,9,1767702551563,2.4520502,-7.5079503,-5.427,-0.0132,0.043449998,0.052525,-0.0041899681091308,0.1083607673645019,-0.227596817016602,15.4211133,73.98115,0.0,0.2521109336238075,0.0,0.06943355061639873,0.0004871595789520359
338296dd-d04e-4244-ab81-9044ef46b13e,9,1767702551575,2.4520502,-7.5079503,-5.427,-0.0132,0.043449998,0.052525,-0.0041899681091308,0.1083607673645019,-0.227596817016602,15.4211133,73.98115,0.0,0.2521109336238075,0.0,0.06943355061639873,0.006086393055639571
338296dd-d04e-4244-ab81-9044ef46b13e,9,1767702551586,2.4709501,-7.5460505,-5.3880005,-0.0119624995,0.0356125,0.04455,-0.0456571578979492,0.1429486274719238,-0.2153926467895512,15.4211133,73.98115,0.0,0.2625126253238756,0.0,0.0582756728878998,0.0006827860802867435
338296dd-d04e-4244-ab81-9044ef46b13e,9,1767702551597,2.4709501,-7.5460505,-5.3880005,-0.0119624995,0.0356125,0.04455,-0.0456571578979492,0.1429486274719238,-0.2153926467895512,15.4211133,73.98115,0.0,0.2625126253238756,0.0,0.0582756728878998,0.006248568123022781
338296dd-d04e-4244-ab81-9044ef46b13e,9,1767702551608,2.4139502,-7.5079503,-5.3880005,0.0,0.0334125,0.01155,-0.0396409034729003,0.0911731719970703,-0.259234008789063,15.4211133,73.98115,0.0,0.2776440523998365,0.0,0.03535247737075861,-0.011634283311891952
338296dd-d04e-4244-ab81-9044ef46b13e,9,1767702551620,2.4139502,-7.5079503,-5.3880005,0.0,0.0334125,0.01155,-0.0396409034729003,0.0911731719970703,-0.259234008789063,15.4211133,73.98115,0.0,0.2776440523998365,0.0,0.03535247737075861,-0.007426236586069324
338296dd-d04e-4244-ab81-9044ef46b13e,9,1767702551631,2.3749502,-7.4890504,-5.3689504,0.0072875,0.0279125,-0.0193875,-0.0532319545745849,0.0590541362762451,-0.2944551086425786,15.4211133,73.98115,0.0,0.3049997426308369,0.0,0.03475759584249175,-0.004899484441630085
338296dd-d04e-4244-ab81-9044ef46b13e,9,1767702551643,2.3749502,-7.4890504,-5.3689504,0.0072875,0.0279125,-0.0193875,-0.0532319545745849,0.0590541362762451,-0.2944551086425786,15.4211133,73.98115,0.0,0.3049997426308369,0.0,0.03475759584249175,-0.0030464964562126923
338296dd-d04e-4244-ab81-9044ef46b13e,9,1767702551654,2.4139502,-7.4890504,-5.3880005,0.00935,0.02255,-0.0341,-0.0254240036010742,0.0765047073364257,-0.2739053344726567,15.4211133,73.98115,0.0,0.2855231732387365,0.0,0.041937274589558156,0.004620745361607844
338296dd-d04e-4244-ab81-9044ef46b13e,9,1767702551665,2.4139502,-7.4890504,-5.3880005,0.00935,0.02255,-0.0341,-0.0254240036010742,0.0765047073364257,-0.2739053344726567,15.4211133,73.98115,0.0,0.2855231732387365,0.0,0.041937274589558156,0.0037384166078803273
338296dd-d04e-4244-ab81-9044ef46b13e,9,1767702551676,2.4139502,-7.4890504,-5.3880005,0.00935,0.02255,-0.0341,-0.0254240036010742,0.0765047073364257,-0.2739053344726567,15.4211133,73.98115,0.0,0.2855231732387365,0.0,0.041937274589558156,0.0015739752617889443
338296dd-d04e-4244-ab81-9044ef46b13e,9,1767702551687,2.4139502,-7.39305,-5.3880005,0.012925,0.0199375,-0.0418,0.0321290493011474,0.0622377395629882,-0.3490272140502934,15.4211133,73.98115,0.0,0.3559856853619472,0.0,0.048081176475310995,0.004444847039473968
338296dd-d04e-4244-ab81-9044ef46b13e,9,1767702551698,2.4139502,-7.39305,-5.3880005,0.012925,0.0199375,-0.0418,0.0321290493011474,0.0622377395629882,-0.3490272140502934,15.4211133,73.98115,0.0,0.3559856853619472,0.0,0.048081176475310995,0.00031042442585964226
338296dd-d04e-4244-ab81-9044ef46b13e,9,1767702551710,2.4709501,-7.3549504,-5.4079504,0.0169125,0.01485,-0.047575,0.0861344337463378,0.0914721488952636,-0.3532004928588872,15.4211133,73.98115,0.0,0.3748824920639538,0.0,0.052630179376950637,0.00016779223213504458
338296dd-d04e-4244-ab81-9044ef46b13e,9,1767702551721,2.4709501,-7.3549504,-5.4079504,0.0169125,0.01485,-0.047575,0.0861344337463378,0.0914721488952636,-0.3532004928588872,15.4211133,73.98115,0.0,0.3748824920639538,0.0,0.052630179376950637,-0.004740303798368311
338296dd-d04e-4244-ab81-9044ef46b13e,9,1767702551732,2.394,-7.431,-5.3310003,0.01815,0.0127875,-0.0587125,-0.0433392524719238,0.0454797744750976,-0.3566070175170903,15.4211133,73.98115,0.0,0.3620984198164433,0.0,0.06277021835631927,0.000629204339512684
338296dd-d04e-4244-ab81-9044ef46b13e,9,1767702551743,2.394,-7.431,-5.3310003,0.01815,0.0127875,-0.0587125,-0.0433392524719238,0.0454797744750976,-0.3566070175170903,15.4211133,73.98115,0.0,0.3620984198164433,0.0,0.06277021835631927,-0.003661725961152681
338296dd-d04e-4244-ab81-9044ef46b13e,9,1767702551754,2.433,-7.4689503,-5.3880005,0.0253,0.000275,-0.0606375,-0.0148072242736816,0.0431656837463378,-0.284603652954102,15.4211133,73.98115,0.0,0.2882390837808067,0.0,0.06570442931226174,-0.004234853563116636
338296dd-d04e-4244-ab81-9044ef46b13e,9,1767702551765,2.433,-7.4689503,-5.3880005,0.0253,0.000275,-0.0606375,-0.0148072242736816,0.0431656837463378,-0.284603652954102,15.4211133,73.98115,0.0,0.2882390837808067,0.0,0.06570442931226174,-0.006717887858030128
338296dd-d04e-4244-ab81-9044ef46b13e,9,1767702551776,2.4709501,-7.5079503,-5.427,0.0352,-0.0174625,-0.065725,0.0012176036834716,0.0486724376678466,-0.2222524261474614,15.4211133,73.98115,0.0,0.2275228113304097,0.0,0.07657515609680467,0.002849229369024856
338296dd-d04e-4244-ab81-9044ef46b13e,9,1767702551787,2.4709501,-7.5079503,-5.427,0.0352,-0.0174625,-0.065725,0.0012176036834716,0.0486724376678466,-0.2222524261474614,15.4211133,73.98115,0.0,0.2275228113304097,0.0,0.07657515609680467,0.0027777004287901047
338296dd-d04e-4244-ab81-9044ef46b13e,9,1767702551797,2.4709501,-7.5079503,-5.427,0.0352,-0.0174625,-0.065725,0.0012176036834716,0.0486724376678466,-0.2222524261474614,15.4211133,73.98115,0.0,0.2275228113304097,0.0,0.07657515609680467,0.0038796867422730124
338296dd-d04e-4244-ab81-9044ef46b13e,9,1767702551808,2.4709501,-7.5460505,-5.3689504,0.038225,-0.0276375,-0.0622875,-0.0610427856445312,0.0623614788055419,-0.225298461914063,15.4211133,73.98115,0.0,0.2416083042010368,0.0,0.07813267362313925,0.007544664017107479
338296dd-d04e-4244-ab81-9044ef46b13e,9,1767702551819,2.4709501,-7.5460505,-5.3689504,0.038225,-0.0276375,-0.0622875,-0.0610427856445312,0.0623614788055419,-0.225298461914063,15.4211133,73.98115,0.0,0.2416083042010368,0.0,0.07813267362313925,0.010393858208293368
338296dd-d04e-4244-ab81-9044ef46b13e,9,1767702551830,2.394,-7.5270004,-5.427,0.03575,-0.0218625,-0.0515625,-0.032160997390747,-0.0417180061340332,-0.2268615341186528,15.4211133,73.98115,0.0,0.2328967098342859,0.0,0.06644338050174749,0.0019619972762899033
338296dd-d04e-4244-ab81-9044ef46b13e,10,1767702551841,2.394,-7.5270004,-5.427,0.03575,-0.0218625,-0.0515625,-0.032160997390747,-0.0417180061340332,-0.2268615341186528,15.4211133,73.98115,0.0,0.2328967098342859,0.0,0.06644338050174749,0.005260836073461047
338296dd-d04e-4244-ab81-9044ef46b13e,10,1767702551853,2.5860002,-7.4119506,-5.427,0.029424999,-0.022275,-0.04455,0.107534646987915,0.1202907562255859,-0.2679505920410161,15.4211133,73.98115,0.0,0.3127796126848262,0.0,0.057850744948963286,-0.0003484040221307857
338296dd-d04e-4244-ab81-9044ef46b13e,10,1767702551864,2.5860002,-7.4119506,-5.427,0.029424999,-0.022275,-0.04455,0.107534646987915,0.1202907562255859,-0.2679505920410161,15.4211133,73.98115,0.0,0.3127796126848262,0.0,0.057850744948963286,0.0020176495727834945
338296dd-d04e-4244-ab81-9044ef46b13e,10,1767702551875,2.394,-7.25895,-5.274,0.0191125,-0.014575,-0.032449998,0.0284335613250732,0.0036349296569824,-0.5235648727416997,15.4211133,73.98115,0.0,0.5243489831136036,0.0,0.04038218235125492,-0.01390878335370462
338296dd-d04e-4244-ab81-9044ef46b13e,10,1767702551885,2.394,-7.25895,-5.274,0.0191125,-0.014575,-0.032449998,0.0284335613250732,0.0036349296569824,-0.5235648727416997,15.4211133,73.98115,0.0,0.5243489831136036,0.0,0.04038218235125492,-0.013272421196178764
338296dd-d04e-4244-ab81-9044ef46b13e,10,1767702551896,2.49,-7.3740005,-5.2930503,0.011275,-0.015125,-0.0342375,0.0046684741973876,0.0785160064697265,-0.397976455688477,15.4211133,73.98115,0.0,0.4056745212675405,0.0,0.039090889683531124,-0.014777048032227005
338296dd-d04e-4244-ab81-9044ef46b13e,10,1767702551907,2.49,-7.3740005,-5.2930503,0.011275,-0.015125,-0.0342375,0.0046684741973876,0.0785160064697265,-0.397976455688477,15.4211133,73.98115,0.0,0.4056745212675405,0.0,0.039090889683531124,-0.015652327485494808
338296dd-d04e-4244-ab81-9044ef46b13e,10,1767702551918,2.5480502,-7.4500504,-5.4079504,0.001375,-0.02805,-0.0567875,0.0550494194030761,0.076047658920288,-0.2584043121337895,15.4211133,73.98115,0.0,0.2749299429549448,0.0,0.06335229499591945,0.007365452060252196
338296dd-d04e-4244-ab81-9044ef46b13e,10,1767702551929,2.5480502,-7.4500504,-5.4079504,0.001375,-0.02805,-0.0567875,0.0550494194030761,0.076047658920288,-0.2584043121337895,15.4211133,73.98115,0.0,0.2749299429549448,0.0,0.06335229499591945,0.006110621456100421
338296dd-d04e-4244-ab81-9044ef46b13e,10,1767702551939,2.5480502,-7.4500504,-5.4079504,0.001375,-0.02805,-0.0567875,0.0550494194030761,0.076047658920288,-0.2584043121337895,15.4211133,73.98115,0.0,0.2749299429549448,0.0,0.06335229499591945,0.005212578978852401
338296dd-d04e-4244-ab81-9044ef46b13e,10,1767702551950,2.5860002,-7.6039505,-5.484,0.0067375,-0.0235125,-0.0638,0.0177745819091796,0.0708308219909668,-0.0849586105346684,15.4211133,73.98115,0.0,0.1120308288371716,0.0,0.06832767786556192,0.00997053495969492
338296dd-d04e-4244-ab81-9044ef46b13e,10,1767702551962,2.5860002,-7.6039505,-5.484,0.0067375,-0.0235125,-0.0638,0.0177745819091796,0.0708308219909668,-0.0849586105346684,15.4211133,73.98115,0.0,0.1120308288371716,0.0,0.06832767786556192,0.010664658743019069
338296dd-d04e-4244-ab81-9044ef46b13e,10,1767702551973,2.529,-7.66095,-5.44605,0.0116875,-0.0174625,-0.0620125,-0.0672276020050048,0.0263383388519287,-0.0765405273437505,15.4211133,73.98115,0.0,0.1052221977098072,0.0,0.06547584836220145,0.009521773520068456
338296dd-d04e-4244-ab81-9044ef46b13e,10,1767702551984,2.529,-7.66095,-5.44605,0.0116875,-0.0174625,-0.0620125,-0.0672276020050048,0.0263383388519287,-0.0765405273437505,15.4211133,73.98115,0.0,0.1052221977098072,0.0,0.06547584836220145,0.012205735931697626
338296dd-d04e-4244-ab81-9044ef46b13e,10,1767702551995,2.2410002,-7.2780004,-5.274,0.017324999,-0.0006875,-0.044825,-0.0501763820648193,-0.1708004474639892,-0.5485339736938482,15.4211133,73.98115,0.0,0.5766974791581605,0.0,0.04806151133287426,-0.001726258616006363
338296dd-d04e-4244-ab81-9044ef46b13e,10,1767702552006,2.2410002,-7.2780004,-5.274,0.017324999,-0.0006875,-0.044825,-0.0501763820648193,-0.1708004474639892,-0.5485339736938482,15.4211133,73.98115,0.0,0.5766974791581605,0.0,0.04806151133287426,0.002267667633544259
338296dd-d04e-4244-ab81-9044ef46b13e,10,1767702552017,2.4709501,-7.3350005,-5.235,0.015675,0.0050875,-0.02695,-0.0347504615783691,0.0468223094940185,-0.4660363769531255,15.4211133,73.98115,0.0,0.4696699137584385,0.0,0.03158940932100504,-0.010053205233037042
338296dd-d04e-4244-ab81-9044ef46b13e,10,1767702552029,2.4709501,-7.3350005,-5.235,0.015675,0.0050875,-0.02695,-0.0347504615783691,0.0468223094940185,-0.4660363769531255,15.4211133,73.98115,0.0,0.4696699137584385,0.0,0.03158940932100504,-0.006114676357112439
338296dd-d04e-4244-ab81-9044ef46b13e,10,1767702552040,2.5090501,-7.7179503,-5.5420504,0.011825,0.0039875,-0.022,-0.0415248870849609,-0.0499260425567626,0.017116966247558,15.4211133,73.98115,0.0,0.0671559119238096,0.0,0.025292899818921515,-0.00901842414891598
338296dd-d04e-4244-ab81-9044ef46b13e,10,1767702552051,2.5090501,-7.7179503,-5.5420504,0.011825,0.0039875,-0.022,-0.0415248870849609,-0.0499260425567626,0.017116966247558,15.4211133,73.98115,0.0,0.0671559119238096,0.0,0.025292899818921515,-0.006422128556879132
338296dd-d04e-4244-ab81-9044ef46b13e,10,1767702552063,2.70105,-7.4119506,-5.6179504,0.013612499,-0.0009625,-0.0196625,0.2610650062561035,0.0776176452636718,-0.1290965652465825,15.4211133,73.98115,0.0,0.3014056394731885,0.0,0.023934085349664,-0.006118010272230695
338296dd-d04e-4244-ab81-9044ef46b13e,10,1767702552074,2.70105,-7.4119506,-5.6179504,0.013612499,-0.0009625,-0.0196625,0.2610650062561035,0.0776176452636718,-0.1290965652465825,15.4211133,73.98115,0.0,0.3014056394731885,0.0,0.023934085349664,-0.005398508604095857
338296dd-d04e-4244-ab81-9044ef46b13e,10,1767702552085,2.70105,-7.4119506,-5.6179504,0.013612499,-0.0009625,-0.0196625,0.2610650062561035,0.0776176452636718,-0.1290965652465825,15.4211133,73.98115,0.0,0.3014056394731885,0.0,0.023934085349664,-0.005512506885206138
338296dd-d04e-4244-ab81-9044ef46b13e,10,1767702552096,2.22195,-7.0669503,-5.1589503,0.0086624995,-0.0075625,-0.026124999,-0.0099837779998779,-0.1625828742980957,-0.7840867614746099,15.4211133,73.98115,0.0,0.8008276446014604,0.0,0.028543753722793733,-0.001645420741696587
338296dd-d04e-4244-ab81-9044ef46b13e,10,1767702552108,2.22195,-7.0669503,-5.1589503,0.0086624995,-0.0075625,-0.026124999,-0.0099837779998779,-0.1625828742980957,-0.7840867614746099,15.4211133,73.98115,0.0,0.8008276446014604,0.0,0.028543753722793733,-0.002755383979818612
338296dd-d04e-4244-ab81-9044ef46b13e,10,1767702552119,2.4139502,-7.5460505,-5.31195,0.0048125,-0.02035,-0.0369875,-0.1324341297149658,-0.0530147552490234,-0.2723641967773442,15.4211133,73.98115,0.0,0.3074599464542368,0.0,0.0424895023799997,0.009984780389172164
338296dd-d04e-4244-ab81-9044ef46b13e,10,1767702552130,2.4139502,-7.5460505,-5.31195,0.0048125,-0.02035,-0.0369875,-0.1324341297149658,-0.0530147552490234,-0.2723641967773442,15.4211133,73.98115,0.0,0.3074599464542368,0.0,0.0424895023799997,0.008920912317320928
338296dd-d04e-4244-ab81-9044ef46b13e,10,1767702552142,2.739,-7.5840006,-5.6950502,0.011275,-0.034375,-0.0411125,0.2180263996124267,0.070878267288208,0.0591568374633784,15.4211133,73.98115,0.0,0.2367673354168704,0.0,0.05476316194532599,0.02043875963233406
338296dd-d04e-4244-ab81-9044ef46b13e,10,1767702552153,2.739,-7.5840006,-5.6950502,0.011275,-0.034375,-0.0411125,0.2180263996124267,0.070878267288208,0.0591568374633784,15.4211133,73.98115,0.0,0.2367673354168704,0.0,0.05476316194532599,0.02006435886857633
