session_id,window_id,timestamp,accel_x,accel_y,accel_z,gyro_x,gyro_y,gyro_z,linear_accel_x,linear_accel_y,linear_accel_z,latitude,longitude,speed,vibration_intensity,anomaly_score,raw_magnitude,vibration_only
4a6ed954-91e6-40a0-a254-bc202c16cf87,5,1767701765407,2.1070502,-7.6800003,-5.3310003,0.0158125,-0.022275,-0.01485,0.179570198059082,-0.7503390312194824,-0.2577024078369145,15.4212517,73.9812867,0.0,0.8134277157850677,0.0,0.03109233476678778,-0.011083022483595934
4a6ed954-91e6-40a0-a254-bc202c16cf87,5,1767701765418,2.1070502,-7.6800003,-5.3310003,0.0158125,-0.022275,-0.01485,0.179570198059082,-0.7503390312194824,-0.2577024078369145,15.4212517,73.9812867,0.0,0.8134277157850677,0.0,0.03109233476678778,-0.009059480310767743
4a6ed954-91e6-40a0-a254-bc202c16cf87,5,1767701765429,2.0689502,-7.7380505,-5.1199503,0.009625,-0.0345125,-0.0243375,0.3541254997253418,-0.6419421434402466,-0.3318992233276372,15.4212517,73.9812867,0.0,0.8047680905241398,0.0,0.04331359125609421,0.0038113115027982552
4a6ed954-91e6-40a0-a254-bc202c16cf87,5,1767701765440,2.0689502,-7.7380505,-5.1199503,0.009625,-0.0345125,-0.0243375,0.3541254997253418,-0.6419421434402466,-0.3318992233276372,15.4212517,73.9812867,0.0,0.8047680905241398,0.0,0.04331359125609421,0.003079604631972413
4a6ed954-91e6-40a0-a254-bc202c16cf87,5,1767701765451,2.088,-7.66095,-5.1390004,0.0253,-0.0407,-0.0295625,0.2984938621520996,-0.6743571758270264,-0.3805051422119145,15.4212517,73.9812867,0.0,0.8298435693439993,0.0,0.05630738323035443,0.014050108374424443
4a6ed954-91e6-40a0-a254-bc202c16cf87,5,1767701765462,2.088,-7.66095,-5.1390004,0.0253,-0.0407,-0.0295625,0.2984938621520996,-0.6743571758270264,-0.3805051422119145,15.4212517,73.9812867,0.0,0.8298435693439993,0.0,0.05630738323035443,0.010909269518421954
4a6ed954-91e6-40a0-a254-bc202c16cf87,5,1767701765473,2.01195,-7.6420503,-5.21595,0.0317625,-0.0400125,-0.021175,0.1921286582946777,-0.6134426593780518,-0.3632112121582036,15.4212517,73.9812867,0.0,0.7383411828689777,0.0,0.05530133079320967,0.005887176590079
4a6ed954-91e6-40a0-a254-bc202c16cf87,5,1767701765484,2.01195,-7.6420503,-5.21595,0.0317625,-0.0400125,-0.021175,0.1921286582946777,-0.6134426593780518,-0.3632112121582036,15.4212517,73.9812867,0.0,0.7383411828689777,0.0,0.05530133079320967,0.001289525879159466
4a6ed954-91e6-40a0-a254-bc202c16cf87,5,1767701765495,2.01195,-7.6420503,-5.21595,0.0317625,-0.0400125,-0.021175,0.1921286582946777,-0.6134426593780518,-0.3632112121582036,15.4212517,73.9812867,0.0,0.7383411828689777,0.0,0.05530133079320967,-0.003561689475702731
4a6ed954-91e6-40a0-a254-bc202c16cf87,5,1767701765505,1.8580501,-7.6039505,-5.274,0.036849998,-0.0419375,-0.0158125,0.0679869651794433,-0.4864614009857178,-0.3841701126098638,15.4212517,73.9812867,0.0,0.6235812677638526,0.0,0.058023369560031623,-0.005598431244598361
4a6ed954-91e6-40a0-a254-bc202c16cf87,5,1767701765516,1.8580501,-7.6039505,-5.274,0.036849998,-0.0419375,-0.0158125,0.0679869651794433,-0.4864614009857178,-0.3841701126098638,15.4212517,73.9812867,0.0,0.6235812677638526,0.0,0.058023369560031623,-0.009918002545988128
4a6ed954-91e6-40a0-a254-bc202c16cf87,5,1767701765527,1.8010501,-7.5840006,-5.3310003,0.033,-0.0545875,0.0099,-0.0116543769836425,-0.4472335577011108,-0.3770642852783208,15.4212517,73.9812867,0.0,0.5850907236226879,0.0,0.06455079516357641,-0.006942510487059832
4a6ed954-91e6-40a0-a254-bc202c16cf87,5,1767701765538,1.8010501,-7.5840006,-5.3310003,0.033,-0.0545875,0.0099,-0.0116543769836425,-0.4472335577011108,-0.3770642852783208,15.4212517,73.9812867,0.0,0.5850907236226879,0.0,0.06455079516357641,-0.009438574139864962
4a6ed954-91e6-40a0-a254-bc202c16cf87,5,1767701765549,1.9350001,-7.6039505,-5.3500504,0.018975,-0.06435,0.0353375,0.0244898796081542,-0.5698919296264648,-0.3304448699951177,15.4212517,73.9812867,0.0,0.6592195216789986,0.0,0.07582685560703412,0.0006210767073384594
4a6ed954-91e6-40a0-a254-bc202c16cf87,5,1767701765559,1.9350001,-7.6039505,-5.3500504,0.018975,-0.06435,0.0353375,0.0244898796081542,-0.5698919296264648,-0.3304448699951177,15.4212517,73.9812867,0.0,0.6592195216789986,0.0,0.07582685560703412,0.0008187745269850987
4a6ed954-91e6-40a0-a254-bc202c16cf87,5,1767701765570,2.12595,-7.66095,-5.2930503,0.0006875,-0.069575,0.0364375,0.1608858108520507,-0.719856858253479,-0.2872825241088872,15.4212517,73.9812867,0.0,0.7915866277082153,0.0,0.07854199314697838,0.005168445575724624
4a6ed954-91e6-40a0-a254-bc202c16cf87,5,1767701765581,2.12595,-7.66095,-5.2930503,0.0006875,-0.069575,0.0364375,0.1608858108520507,-0.719856858253479,-0.2872825241088872,15.4212517,73.9812867,0.0,0.7915866277082153,0.0,0.07854199314697838,0.008134878728569038
4a6ed954-91e6-40a0-a254-bc202c16cf87,5,1767701765591,2.29905,-7.66095,-5.274,-0.007975,-0.066825,0.02695,0.2341880798339843,-0.8718738555908203,-0.2718721008300786,15.4212517,73.9812867,0.0,0.9428268748868436,0.0,0.0724947153246359,0.006147855064350605
4a6ed954-91e6-40a0-a254-bc202c16cf87,5,1767701765602,2.29905,-7.66095,-5.274,-0.007975,-0.066825,0.02695,0.2341880798339843,-0.8718738555908203,-0.2718721008300786,15.4212517,73.9812867,0.0,0.9428268748868436,0.0,0.0724947153246359,0.010938806327318808
4a6ed954-91e6-40a0-a254-bc202c16cf87,5,1767701765613,2.29905,-7.66095,-5.274,-0.007975,-0.066825,0.02695,0.2341880798339843,-0.8718738555908203,-0.2718721008300786,15.4212517,73.9812867,0.0,0.9428268748868436,0.0,0.0724947153246359,0.015995330986785756
4a6ed954-91e6-40a0-a254-bc202c16cf87,5,1767701765624,2.3749502,-7.6800003,-5.31195,-0.0061875,-0.049775,0.0132,0.2397894859313964,-0.9330859184265136,-0.2229524230957036,15.4212517,73.9812867,0.0,0.9888660736891216,0.0,0.05186594047397579,0.00015856812699305715
4a6ed954-91e6-40a0-a254-bc202c16cf87,5,1767701765635,2.3749502,-7.6800003,-5.31195,-0.0061875,-0.049775,0.0132,0.2397894859313964,-0.9330859184265136,-0.2229524230957036,15.4212517,73.9812867,0.0,0.9888660736891216,0.0,0.05186594047397579,0.004138591291784409
4a6ed954-91e6-40a0-a254-bc202c16cf87,5,1767701765646,2.529,-7.5649505,-5.3689504,-0.0037125,-0.0210375,0.0001375,0.1885852813720703,-1.1063371896743774,-0.2606320953369145,15.4212517,73.9812867,0.0,1.1521612190689692,0.0,0.02136300467513875,-0.023708679787641813
4a6ed954-91e6-40a0-a254-bc202c16cf87,5,1767701765657,2.529,-7.5649505,-5.3689504,-0.0037125,-0.0210375,0.0001375,0.1885852813720703,-1.1063371896743774,-0.2606320953369145,15.4212517,73.9812867,0.0,1.1521612190689692,0.0,0.02136300467513875,-0.02280408469884582
4a6ed954-91e6-40a0-a254-bc202c16cf87,5,1767701765667,2.4520502,-7.7569504,-5.274,-0.005775,0.014025,-0.027775,0.321134090423584,-0.9323021173477172,-0.1650224304199223,15.4212517,73.9812867,0.0,0.9997733466065784,0.0,0.03164651442102274,-0.013666300355427386
4a6ed954-91e6-40a0-a254-bc202c16cf87,5,1767701765678,2.4520502,-7.7569504,-5.274,-0.005775,0.014025,-0.027775,0.321134090423584,-0.9323021173477172,-0.1650224304199223,15.4212517,73.9812867,0.0,0.9997733466065784,0.0,0.03164651442102274,-0.01700638140754238
4a6ed954-91e6-40a0-a254-bc202c16cf87,5,1767701765689,2.4520502,-7.7179503,-5.19705,-0.0103124995,0.047849998,-0.0570625,0.3471240997314453,-0.8960675001144409,-0.2358041381835942,15.4212517,73.9812867,0.0,0.9894623272061536,0.0,0.07518044200979072,0.021015342023668643
4a6ed954-91e6-40a0-a254-bc202c16cf87,5,1767701765700,2.4520502,-7.7179503,-5.19705,-0.0103124995,0.047849998,-0.0570625,0.3471240997314453,-0.8960675001144409,-0.2358041381835942,15.4212517,73.9812867,0.0,0.9894623272061536,0.0,0.07518044200979072,0.01351426125891613
4a6ed954-91e6-40a0-a254-bc202c16cf87,5,1767701765711,2.3370001,-7.6990504,-5.19705,-0.0166375,0.0616,-0.0650375,0.2845005989074707,-0.7602071762084961,-0.2660270309448247,15.4212517,73.9812867,0.0,0.8541814343164593,0.0,0.0911111563558492,0.020280701751475276
4a6ed954-91e6-40a0-a254-bc202c16cf87,5,1767701765722,2.3370001,-7.6990504,-5.19705,-0.0166375,0.0616,-0.0650375,0.2845005989074707,-0.7602071762084961,-0.2660270309448247,15.4212517,73.9812867,0.0,0.8541814343164593,0.0,0.0911111563558492,0.009893844727905686
4a6ed954-91e6-40a0-a254-bc202c16cf87,5,1767701765733,2.3370001,-7.6990504,-5.19705,-0.0166375,0.0616,-0.0650375,0.2845005989074707,-0.7602071762084961,-0.2660270309448247,15.4212517,73.9812867,0.0,0.8541814343164593,0.0,0.0911111563558492,-0.0011921320875729466
4a6ed954-91e6-40a0-a254-bc202c16cf87,5,1767701765744,2.29905,-7.5460505,-5.21595,-0.0221375,0.0724625,-0.0675125,0.1727280616760254,-0.7431930303573608,-0.3838410949707036,15.4212517,73.9812867,0.0,0.8541105606714054,0.0,0.10148310435116774,-0.0020323820121952107
4a6ed954-91e6-40a0-a254-bc202c16cf87,5,1767701765755,2.29905,-7.5460505,-5.21595,-0.0221375,0.0724625,-0.0675125,0.1727280616760254,-0.7431930303573608,-0.3838410949707036,15.4212517,73.9812867,0.0,0.8541105606714054,0.0,0.10148310435116774,-0.012781648301053938
4a6ed954-91e6-40a0-a254-bc202c16cf87,5,1767701765766,2.29905,-7.6420503,-5.2930503,-0.0199375,0.0842875,-0.08085,0.14744234085083,-0.6909328699111938,-0.2599301910400395,15.4212517,73.9812867,0.0,0.7527889337745359,0.0,0.11848463639856435,-0.0054938039649538445
4a6ed954-91e6-40a0-a254-bc202c16cf87,5,1767701765776,2.29905,-7.6420503,-5.2930503,-0.0199375,0.0842875,-0.08085,0.14744234085083,-0.6909328699111938,-0.2599301910400395,15.4212517,73.9812867,0.0,0.7527889337745359,0.0,0.11848463639856435,-0.013648575602069068
4a6ed954-91e6-40a0-a254-bc202c16cf87,5,1767701765787,2.3749502,-7.7760005,-5.3310003,-0.0155375,0.09295,-0.097075,0.1914906501770019,-0.6786597967147827,-0.1131492233276372,15.4212517,73.9812867,0.0,0.7141782239201981,0.0,0.1352947598070598,-0.0029933243966510856
4a6ed954-91e6-40a0-a254-bc202c16cf87,5,1767701765798,2.3749502,-7.7760005,-5.3310003,-0.0155375,0.09295,-0.097075,0.1914906501770019,-0.6786597967147827,-0.1131492233276372,15.4212517,73.9812867,0.0,0.7141782239201981,0.0,0.1352947598070598,-0.006822124557076909
4a6ed954-91e6-40a0-a254-bc202c16cf87,5,1767701765809,2.3749502,-7.833,-5.3500504,-0.01045,0.1012,-0.1093125,0.1838359832763672,-0.6097275614738464,-0.052247581481934,15.4212517,73.9812867,0.0,0.6389782294716646,0.0,0.1493313937397291,0.005893497858821426
4a6ed954-91e6-40a0-a254-bc202c16cf87,5,1767701765820,2.3749502,-7.833,-5.3500504,-0.01045,0.1012,-0.1093125,0.1838359832763672,-0.6097275614738464,-0.052247581481934,15.4212517,73.9812867,0.0,0.6389782294716646,0.0,0.1493313937397291,0.00709419486898401
4a6ed954-91e6-40a0-a254-bc202c16cf87,5,1767701765831,2.3749502,-7.833,-5.3500504,-0.01045,0.1012,-0.1093125,0.1838359832763672,-0.6097275614738464,-0.052247581481934,15.4212517,73.9812867,0.0,0.6389782294716646,0.0,0.1493313937397291,0.010649859080379949
4a6ed954-91e6-40a0-a254-bc202c16cf87,5,1767701765841,2.2800002,-7.8520503,-5.235,-0.003575,0.1018875,-0.0969375,0.2342219352722168,-0.4466317892074585,-0.11443286895752,15.4212517,73.9812867,0.0,0.5171409397748037,0.0,0.1406795016606897,0.007562736546507494
4a6ed954-91e6-40a0-a254-bc202c16cf87,5,1767701765852,2.2800002,-7.8520503,-5.235,-0.003575,0.1018875,-0.0969375,0.2342219352722168,-0.4466317892074585,-0.11443286895752,15.4212517,73.9812867,0.0,0.5171409397748037,0.0,0.1406795016606897,0.014630231086685876
4a6ed954-91e6-40a0-a254-bc202c16cf87,5,1767701765863,2.1460502,-7.6990504,-5.1010504,0.0064625,0.097625,-0.0658625,0.20768404006958,-0.3119375109672546,-0.3357587432861333,15.4212517,73.9812867,0.0,0.5031616091686175,0.0,0.11794182225784033,-0.0001679659628788748
4a6ed954-91e6-40a0-a254-bc202c16cf87,6,1767701765874,2.1460502,-7.6990504,-5.1010504,0.0064625,0.097625,-0.0658625,0.20768404006958,-0.3119375109672546,-0.3357587432861333,15.4212533,73.981285,0.0,0.5031616091686175,0.0,0.11794182225784033,0.007939952207320836
4a6ed954-91e6-40a0-a254-bc202c16cf87,6,1767701765885,1.9729501,-7.6039505,-5.1199503,0.0144375,0.089237496,-0.0284625,0.0758004188537597,-0.1621113419532776,-0.4347940063476567,15.4212533,73.981285,0.0,0.470182537578911,0.0,0.09477281258277616,-0.007667017029587388
4a6ed954-91e6-40a0-a254-bc202c16cf87,6,1767701765895,1.9729501,-7.6039505,-5.1199503,0.0144375,0.089237496,-0.0284625,0.0758004188537597,-0.1621113419532776,-0.4347940063476567,15.4212533,73.981285,0.0,0.470182537578911,0.0,0.09477281258277616,-0.001310393220687545
4a6ed954-91e6-40a0-a254-bc202c16cf87,6,1767701765906,1.8769501,-7.623,-5.2540503,0.0281875,0.064625,-0.006325,-0.066112995147705,-0.0751267671585083,-0.3639350509643559,15.4212533,73.981285,0.0,0.3774436124661769,0.0,0.07078793263155804,-0.02068799140743067
4a6ed954-91e6-40a0-a254-bc202c16cf87,6,1767701765916,1.8769501,-7.623,-5.2540503,0.0281875,0.064625,-0.006325,-0.066112995147705,-0.0751267671585083,-0.3639350509643559,15.4212533,73.981285,0.0,0.3774436124661769,0.0,0.07078793263155804,-0.0182102311221611
4a6ed954-91e6-40a0-a254-bc202c16cf87,6,1767701765927,1.8580501,-7.8139505,-5.235,0.0268125,0.0180125,0.07975,0.0236849784851074,0.0164783596992492,-0.2227902984619145,15.4212533,73.981285,0.0,0.2246509105990154,0.0,0.08604314506397358,-0.0027942189449121873
4a6ed954-91e6-40a0-a254-bc202c16cf87,6,1767701765937,1.8580501,-7.8139505,-5.235,0.0268125,0.0180125,0.07975,0.0236849784851074,0.0164783596992492,-0.2227902984619145,15.4212533,73.981285,0.0,0.2246509105990154,0.0,0.08604314506397358,-0.004938871919443489
4a6ed954-91e6-40a0-a254-bc202c16cf87,6,1767701765948,1.8580501,-7.8139505,-5.235,0.0268125,0.0180125,0.07975,0.0236849784851074,0.0164783596992492,-0.2227902984619145,15.4212533,73.981285,0.0,0.2246509105990154,0.0,0.08604314506397358,-0.009195249347817978
4a6ed954-91e6-40a0-a254-bc202c16cf87,6,1767701765959,1.8390001,-7.9099503,-5.1780005,0.0243375,-0.0213125,0.111237496,0.1034965515136718,0.0601614117622375,-0.1794953918457036,15.4212533,73.981285,0.0,0.2157533947225172,0.0,0.11584609220362169,0.01457929778912356
4a6ed954-91e6-40a0-a254-bc202c16cf87,6,1767701765969,1.8390001,-7.9099503,-5.1780005,0.0243375,-0.0213125,0.111237496,0.1034965515136718,0.0601614117622375,-0.1794953918457036,15.4212533,73.981285,0.0,0.2157533947225172,0.0,0.11584609220362169,0.007215117630838374
4a6ed954-91e6-40a0-a254-bc202c16cf87,6,1767701765980,1.8769501,-7.79505,-5.0820003,0.0246125,-0.0562375,0.1166,0.1366724967956543,-0.0225297212600708,-0.3182492828369145,15.4212533,73.981285,0.0,0.3470872595567648,0.0,0.13177249926483142,0.0149198030694211
4a6ed954-91e6-40a0-a254-bc202c16cf87,6,1767701765991,1.8769501,-7.79505,-5.0820003,0.0246125,-0.0562375,0.1166,0.1366724967956543,-0.0225297212600708,-0.3182492828369145,15.4212533,73.981285,0.0,0.3470872595567648,0.0,0.13177249926483142,0.006309456791154896
4a6ed954-91e6-40a0-a254-bc202c16cf87,6,1767701766001,1.9729501,-7.7760005,-5.1589503,0.0323125,-0.0760375,0.1211375,0.0966372489929199,-0.1584293246269226,-0.2738023376464849,15.4212533,73.981285,0.0,0.3307662753294872,0.0,0.1466291000066153,0.012585707654647393
4a6ed954-91e6-40a0-a254-bc202c16cf87,6,1767701766012,1.9729501,-7.7760005,-5.1589503,0.0323125,-0.0760375,0.1211375,0.0966372489929199,-0.1584293246269226,-0.2738023376464849,15.4212533,73.981285,0.0,0.3307662753294872,0.0,0.1466291000066153,0.004377757337551214
4a6ed954-91e6-40a0-a254-bc202c16cf87,6,1767701766023,2.01195,-7.833,-5.21595,0.047025,-0.0847,0.1161875,0.0894021987915039,-0.2137956023216247,-0.18938404083252,15.4212533,73.981285,0.0,0.2992785118294922,0.0,0.1512778099433291,0.0014478475922548605
4a6ed954-91e6-40a0-a254-bc202c16cf87,6,1767701766033,2.01195,-7.833,-5.21595,0.047025,-0.0847,0.1161875,0.0894021987915039,-0.2137956023216247,-0.18938404083252,15.4212533,73.981285,0.0,0.2992785118294922,0.0,0.1512778099433291,-0.005324111660560403
4a6ed954-91e6-40a0-a254-bc202c16cf87,6,1767701766044,2.01195,-7.833,-5.21595,0.047025,-0.0847,0.1161875,0.0894021987915039,-0.2137956023216247,-0.18938404083252,15.4212533,73.981285,0.0,0.2992785118294922,0.0,0.1512778099433291,-0.011174861702611371
4a6ed954-91e6-40a0-a254-bc202c16cf87,6,1767701766055,1.9540501,-7.8139505,-5.21595,0.064075,-0.097075,0.1082125,0.0595302581787109,-0.1954705715179443,-0.2162232971191411,15.4212533,73.981285,0.0,0.2974980843391233,0.0,0.15886820451635372,-0.008440274639810884
4a6ed954-91e6-40a0-a254-bc202c16cf87,6,1767701766066,1.9540501,-7.8139505,-5.21595,0.064075,-0.097075,0.1082125,0.0595302581787109,-0.1954705715179443,-0.2162232971191411,15.4212533,73.981285,0.0,0.2974980843391233,0.0,0.15886820451635372,-0.012247263666722116
4a6ed954-91e6-40a0-a254-bc202c16cf87,6,1767701766076,1.8199501,-7.6990504,-5.274,0.068475,-0.109175,0.1062875,-0.0878100395202636,-0.1499226689338684,-0.3035541152954106,15.4212533,73.981285,0.0,0.3497606476057363,0.0,0.1670480137752317,-0.006776859975660022
4a6ed954-91e6-40a0-a254-bc202c16cf87,6,1767701766087,1.8199501,-7.6990504,-5.274,0.068475,-0.109175,0.1062875,-0.0878100395202636,-0.1499226689338684,-0.3035541152954106,15.4212533,73.981285,0.0,0.3497606476057363,0.0,0.1670480137752317,-0.008339697995722394
4a6ed954-91e6-40a0-a254-bc202c16cf87,6,1767701766098,1.6860001,-7.5460505,-5.3880005,0.0611875,-0.1236125,0.11,-0.2933459281921386,-0.1314671039581298,-0.3912568664550786,15.4212533,73.981285,0.0,0.5063767061766292,0.0,0.17641984103977648,0.0006603713646771959
4a6ed954-91e6-40a0-a254-bc202c16cf87,6,1767701766108,1.6860001,-7.5460505,-5.3880005,0.0611875,-0.1236125,0.11,-0.2933459281921386,-0.1314671039581298,-0.3912568664550786,15.4212533,73.981285,0.0,0.5063767061766292,0.0,0.17641984103977648,0.0015070617071918373
4a6ed954-91e6-40a0-a254-bc202c16cf87,6,1767701766119,1.8390001,-7.3740005,-5.484,0.0396,-0.1390125,0.1153625,-0.3931488990783691,-0.3810087442398071,-0.454128799438477,15.4212533,73.981285,0.0,0.7113133532509852,0.0,0.18493550649483187,0.012081597483999692
4a6ed954-91e6-40a0-a254-bc202c16cf87,6,1767701766130,1.8390001,-7.3740005,-5.484,0.0396,-0.1390125,0.1153625,-0.3931488990783691,-0.3810087442398071,-0.454128799438477,15.4212533,73.981285,0.0,0.7113133532509852,0.0,0.18493550649483187,0.015297735321591267
4a6ed954-91e6-40a0-a254-bc202c16cf87,6,1767701766140,1.8390001,-7.3740005,-5.484,0.0396,-0.1390125,0.1153625,-0.3931488990783691,-0.3810087442398071,-0.454128799438477,15.4212533,73.981285,0.0,0.7113133532509852,0.0,0.18493550649483187,0.019559234417638554
4a6ed954-91e6-40a0-a254-bc202c16cf87,6,1767701766151,1.7629501,-7.6039505,-5.3689504,0.0108624995,-0.125125,0.100099996,-0.2014222145080566,-0.2498730421066284,-0.3415942764282231,15.4212533,73.981285,0.0,0.4687153671019031,0.0,0.1606059423545328,0.0003696897581033711
4a6ed954-91e6-40a0-a254-bc202c16cf87,6,1767701766162,1.7629501,-7.6039505,-5.3689504,0.0108624995,-0.125125,0.100099996,-0.2014222145080566,-0.2498730421066284,-0.3415942764282231,15.4212533,73.981285,0.0,0.4687153671019031,0.0,0.1606059423545328,0.006180232140488037
4a6ed954-91e6-40a0-a254-bc202c16cf87,6,1767701766172,1.9729501,-7.7179503,-5.3880005,-0.03575,-0.1115125,0.0748,-0.0781388282775878,-0.4356622695922851,-0.2030263519287114,15.4212533,73.981285,0.0,0.4869568658601871,0.0,0.13895373386940704,-0.009216166210771717
4a6ed954-91e6-40a0-a254-bc202c16cf87,6,1767701766183,1.9729501,-7.7179503,-5.3880005,-0.03575,-0.1115125,0.0748,-0.0781388282775878,-0.4356622695922851,-0.2030263519287114,15.4212533,73.981285,0.0,0.4869568658601871,0.0,0.13895373386940704,-0.002727862366103404
4a6ed954-91e6-40a0-a254-bc202c16cf87,6,1767701766194,1.8769501,-7.7760005,-5.2540503,-0.047849998,-0.098725,0.0559625,0.0456819534301757,-0.316851258277893,-0.2448707199096684,15.4212533,73.981285,0.0,0.4030424670063443,0.0,0.12315863485704119,-0.011972978184538316
4a6ed954-91e6-40a0-a254-bc202c16cf87,6,1767701766204,1.8769501,-7.7760005,-5.2540503,-0.047849998,-0.098725,0.0559625,0.0456819534301757,-0.316851258277893,-0.2448707199096684,15.4212533,73.981285,0.0,0.4030424670063443,0.0,0.12315863485704119,-0.0054675893875924505
4a6ed954-91e6-40a0-a254-bc202c16cf87,6,1767701766215,1.8010501,-7.6420503,-5.3689504,-0.050325,-0.0847,0.0402875,-0.1155004501342773,-0.3224426507949829,-0.3045793151855474,15.4212533,73.981285,0.0,0.4583428588642055,0.0,0.10644143122511084,-0.015755819134728666
4a6ed954-91e6-40a0-a254-bc202c16cf87,6,1767701766226,1.8010501,-7.6420503,-5.3689504,-0.050325,-0.0847,0.0402875,-0.1155004501342773,-0.3224426507949829,-0.3045793151855474,15.4212533,73.981285,0.0,0.4583428588642055,0.0,0.10644143122511084,-0.009367033407651547
4a6ed954-91e6-40a0-a254-bc202c16cf87,6,1767701766236,1.8010501,-7.6420503,-5.3689504,-0.050325,-0.0847,0.0402875,-0.1155004501342773,-0.3224426507949829,-0.3045793151855474,15.4212533,73.981285,0.0,0.4583428588642055,0.0,0.10644143122511084,-0.0029375217131191655
4a6ed954-91e6-40a0-a254-bc202c16cf87,6,1767701766247,1.59,-7.6800003,-5.3500504,-0.0730125,-0.0554125,0.034375,-0.1306638717651367,-0.1193389892578125,-0.3177791213989263,15.4212533,73.981285,0.0,0.3637284862899879,0.0,0.09789285437405532,-0.004927802644165814
4a6ed954-91e6-40a0-a254-bc202c16cf87,6,1767701766258,1.59,-7.6800003,-5.3500504,-0.0730125,-0.0554125,0.034375,-0.1306638717651367,-0.1193389892578125,-0.3177791213989263,15.4212533,73.981285,0.0,0.3637284862899879,0.0,0.09789285437405532,0.001808734886929294
4a6ed954-91e6-40a0-a254-bc202c16cf87,6,1767701766268,2.0310001,-7.7569504,-5.2540503,-0.080025,-0.0391875,0.0369875,0.152318000793457,-0.4841279983520508,-0.2369790649414067,15.4212533,73.981285,0.0,0.5601247801825789,0.0,0.09647660824002884,0.007272583045730983
4a6ed954-91e6-40a0-a254-bc202c16cf87,6,1767701766279,2.0310001,-7.7569504,-5.2540503,-0.080025,-0.0391875,0.0369875,0.152318000793457,-0.4841279983520508,-0.2369790649414067,15.4212533,73.981285,0.0,0.5601247801825789,0.0,0.09647660824002884,0.014141604735522152
4a6ed954-91e6-40a0-a254-bc202c16cf87,6,1767701766290,2.0310001,-7.7179503,-5.025,-0.071775,-0.0356125,0.04455,0.3322787284851074,-0.445237398147583,-0.3954511260986333,15.4212533,73.981285,0.0,0.6819289458921555,0.0,0.09167662341758667,0.01590796541365821
4a6ed954-91e6-40a0-a254-bc202c16cf87,6,1767701766300,2.0310001,-7.7179503,-5.025,-0.071775,-0.0356125,0.04455,0.3322787284851074,-0.445237398147583,-0.3954511260986333,15.4212533,73.981285,0.0,0.6819289458921555,0.0,0.09167662341758667,0.021751591605367566
4a6ed954-91e6-40a0-a254-bc202c16cf87,6,1767701766311,2.2410002,-7.6420503,-4.986,-0.058849998,-0.03355,0.0331375,0.4080152511596679,-0.6533771753311157,-0.4457135772705083,15.4212533,73.981285,0.0,0.8899656012373893,0.0,0.07541232439628157,0.010096795512078788
4a6ed954-91e6-40a0-a254-bc202c16cf87,6,1767701766322,2.2410002,-7.6420503,-4.986,-0.058849998,-0.03355,0.0331375,0.4080152511596679,-0.6533771753311157,-0.4457135772705083,15.4212533,73.981285,0.0,0.8899656012373893,0.0,0.07541232439628157,0.012933099033313909
4a6ed954-91e6-40a0-a254-bc202c16cf87,6,1767701766332,2.2410002,-7.6420503,-4.986,-0.058849998,-0.03355,0.0331375,0.4080152511596679,-0.6533771753311157,-0.4457135772705083,15.4212533,73.981285,0.0,0.8899656012373893,0.0,0.07541232439628157,0.013512544089532329
4a6ed954-91e6-40a0-a254-bc202c16cf87,6,1767701766343,2.394,-7.7569504,-5.1010504,-0.0449625,-0.026124999,0.0083875,0.4270696640014648,-0.7719240188598633,-0.2630620574951177,15.4212533,73.981285,0.0,0.9205741876115424,0.0,0.052673448104808944,-0.011241427194484156
4a6ed954-91e6-40a0-a254-bc202c16cf87,6,1767701766354,2.394,-7.7569504,-5.1010504,-0.0449625,-0.026124999,0.0083875,0.4270696640014648,-0.7719240188598633,-0.2630620574951177,15.4212533,73.981285,0.0,0.9205741876115424,0.0,0.052673448104808944,-0.01595987160425349
4a6ed954-91e6-40a0-a254-bc202c16cf87,6,1767701766365,2.394,-8.00595,-5.1780005,0.0055,-0.0064625,-0.0342375,0.4706449508666992,-0.6823320388793945,-0.0145354843139653,15.4212533,73.981285,0.0,0.8290325454177724,0.0,0.035273507232766066,-0.040602292751857665
4a6ed954-91e6-40a0-a254-bc202c16cf87,6,1767701766376,2.394,-8.00595,-5.1780005,0.0055,-0.0064625,-0.0342375,0.4706449508666992,-0.6823320388793945,-0.0145354843139653,15.4212533,73.981285,0.0,0.8290325454177724,0.0,0.035273507232766066,-0.04987963508450438
4a6ed954-91e6-40a0-a254-bc202c16cf87,6,1767701766387,2.394,-8.00595,-5.1780005,0.0055,-0.0064625,-0.0342375,0.4706449508666992,-0.6823320388793945,-0.0145354843139653,15.4212533,73.981285,0.0,0.8290325454177724,0.0,0.035273507232766066,-0.06041727473947118
4a6ed954-91e6-40a0-a254-bc202c16cf87,6,1767701766397,2.26005,-8.10105,-5.3310003,0.0374,0.0314875,-0.1051875,0.3268294334411621,-0.5355944633483887,0.1278433227539057,15.4212533,73.981285,0.0,0.6403302451904632,0.0,0.11599410680073365,0.009493654515661094
4a6ed954-91e6-40a0-a254-bc202c16cf87,6,1767701766408,1.8970501,-7.7760005,-5.2930503,0.0807125,0.0512875,-0.132825,0.055983543395996,-0.2645802497863769,-0.2179065322875981,15.4212533,73.981285,0.0,0.3473040778939963,0.0,0.1636685551274282,0.047177284154548894
4a6ed954-91e6-40a0-a254-bc202c16cf87,6,1767701766419,1.8970501,-7.7760005,-5.2930503,0.0807125,0.0512875,-0.132825,0.055983543395996,-0.2645802497863769,-0.2179065322875981,15.4212533,73.981285,0.0,0.3473040778939963,0.0,0.1636685551274282,0.039064167860113796
4a6ed954-91e6-40a0-a254-bc202c16cf87,6,1767701766429,1.8970501,-7.7760005,-5.2930503,0.0807125,0.0512875,-0.132825,0.055983543395996,-0.2645802497863769,-0.2179065322875981,15.4212533,73.981285,0.0,0.3473040778939963,0.0,0.1636685551274282,0.03371832920040848
4a6ed954-91e6-40a0-a254-bc202c16cf87,6,1767701766440,1.6480501,-7.6039505,-5.2540503,0.0939125,0.0397375,-0.109725,-0.1036915779113769,-0.0577818155288696,-0.4223962402343755,15.4212533,73.981285,0.0,0.4387587780315052,0.0,0.149793865653771,0.01786736259769243
4a6ed954-91e6-40a0-a254-bc202c16cf87,6,1767701766451,1.6480501,-7.6039505,-5.2540503,0.0939125,0.0397375,-0.109725,-0.1036915779113769,-0.0577818155288696,-0.4223962402343755,15.4212533,73.981285,0.0,0.4387587780315052,0.0,0.149793865653771,0.019495146217398077
4a6ed954-91e6-40a0-a254-bc202c16cf87,6,1767701766462,1.57095,-7.66095,-5.3310003,0.0798875,0.033825,-0.0837375,-0.1896648406982422,0.0344220399856567,-0.3474164581298833,15.4212533,73.981285,0.0,0.3973107398666398,0.0,0.12057409418071528,-0.004657567471275097
4a6ed954-91e6-40a0-a254-bc202c16cf87,6,1767701766473,1.57095,-7.66095,-5.3310003,0.0798875,0.033825,-0.0837375,-0.1896648406982422,0.0344220399856567,-0.3474164581298833,15.4212533,73.981285,0.0,0.3973107398666398,0.0,0.12057409418071528,0.003305301481491436
4a6ed954-91e6-40a0-a254-bc202c16cf87,6,1767701766484,1.5520501,-7.6990504,-5.44605,0.064075,0.0092124995,-0.0495,-0.2865524291992187,0.0531426668167114,-0.2570539093017583,15.4212533,73.981285,0.0,0.3886041044606733,0.0,0.08149064837168433,-0.02577385548674363
4a6ed954-91e6-40a0-a254-bc202c16cf87,6,1767701766494,1.5520501,-7.6990504,-5.44605,0.064075,0.0092124995,-0.0495,-0.2865524291992187,0.0531426668167114,-0.2570539093017583,15.4212533,73.981285,0.0,0.3886041044606733,0.0,0.08149064837168433,-0.014789986413373014
4a6ed954-91e6-40a0-a254-bc202c16cf87,6,1767701766505,1.6669501,-7.6420503,-5.46495,0.0565125,-0.02145,-0.03575,-0.2960138320922851,-0.0702826976776123,-0.2730832672119145,15.4212533,73.981285,0.0,0.4088255339554223,0.0,0.07022697242691016,-0.015235644194175238
4a6ed954-91e6-40a0-a254-bc202c16cf87,6,1767701766516,1.6669501,-7.6420503,-5.46495,0.0565125,-0.02145,-0.03575,-0.2960138320922851,-0.0702826976776123,-0.2730832672119145,15.4212533,73.981285,0.0,0.4088255339554223,0.0,0.07022697242691016,-0.0056848387170761825
4a6ed954-91e6-40a0-a254-bc202c16cf87,6,1767701766527,1.7820001,-7.6039505,-5.3689504,0.0402875,-0.0548625,-0.0015125,-0.2008676528930664,-0.1679259538650512,-0.3362107849121099,15.4212533,73.981285,0.0,0.426127483098044,0.0,0.06808277475801056,-0.000486623492646434
4a6ed954-91e6-40a0-a254-bc202c16cf87,6,1767701766538,1.7820001,-7.6039505,-5.3689504,0.0402875,-0.0548625,-0.0015125,-0.2008676528930664,-0.1679259538650512,-0.3362107849121099,15.4212533,73.981285,0.0,0.426127483098044,0.0,0.06808277475801056,0.003958602838369051
4a6ed954-91e6-40a0-a254-bc202c16cf87,6,1767701766548,1.7820001,-7.6039505,-5.3689504,0.0402875,-0.0548625,-0.0015125,-0.2008676528930664,-0.1679259538650512,-0.3362107849121099,15.4212533,73.981285,0.0,0.426127483098044,0.0,0.06808277475801056,0.005130129656851406
4a6ed954-91e6-40a0-a254-bc202c16cf87,6,1767701766559,1.8769501,-7.5840006,-5.274,0.0078375,-0.0528,0.02035,-0.1006679534912109,-0.2481385469436645,-0.3875070190429692,15.4212533,73.981285,0.0,0.4710291553046265,0.0,0.05712607903794903,-0.007969556237578054
4a6ed954-91e6-40a0-a254-bc202c16cf87,6,1767701766570,1.8769501,-7.5840006,-5.274,0.0078375,-0.0528,0.02035,-0.1006679534912109,-0.2481385469436645,-0.3875070190429692,15.4212533,73.981285,0.0,0.4710291553046265,0.0,0.05712607903794903,-0.013145374067919251
4a6ed954-91e6-40a0-a254-bc202c16cf87,6,1767701766581,2.0689502,-7.6039505,-5.3880005,-0.032449998,-0.0408375,0.0499125,-0.1109218597412109,-0.4441640377044678,-0.2747188186645513,15.4212533,73.981285,0.0,0.5339061534453704,0.0,0.07219391548253913,-0.005728229881425015
4a6ed954-91e6-40a0-a254-bc202c16cf87,6,1767701766591,2.0689502,-7.6039505,-5.3880005,-0.032449998,-0.0408375,0.0499125,-0.1109218597412109,-0.4441640377044678,-0.2747188186645513,15.4212533,73.981285,0.0,0.5339061534453704,0.0,0.07219391548253913,-0.015092110515475307
4a6ed954-91e6-40a0-a254-bc202c16cf87,6,1767701766602,2.2410002,-7.5649505,-5.44605,-0.0754875,-0.0185625,0.0873125,-0.1011929512023925,-0.624640941619873,-0.2439351654052739,15.4212533,73.981285,0.0,0.6781745234392913,0.0,0.11690338625869655,0.019416292958023475
4a6ed954-91e6-40a0-a254-bc202c16cf87,6,1767701766613,2.2410002,-7.5649505,-5.44605,-0.0754875,-0.0185625,0.0873125,-0.1011929512023925,-0.624640941619873,-0.2439351654052739,15.4212533,73.981285,0.0,0.6781745234392913,0.0,0.11690338625869655,0.0092732241820297
4a6ed954-91e6-40a0-a254-bc202c16cf87,6,1767701766623,2.3370001,-7.6800003,-5.3880005,-0.099275,-0.0061875,0.0955625,0.0538606643676757,-0.6571075916290283,-0.1642833328247075,15.4212533,73.981285,0.0,0.6794706554271662,0.0,0.13793477512034447,0.021044740123752542
4a6ed954-91e6-40a0-a254-bc202c16cf87,6,1767701766634,2.3370001,-7.6800003,-5.3880005,-0.099275,-0.0061875,0.0955625,0.0538606643676757,-0.6571075916290283,-0.1642833328247075,15.4212533,73.981285,0.0,0.6794706554271662,0.0,0.13793477512034447,0.013350653459661929
4a6ed954-91e6-40a0-a254-bc202c16cf87,6,1767701766645,2.3370001,-7.6800003,-5.3880005,-0.099275,-0.0061875,0.0955625,0.0538606643676757,-0.6571075916290283,-0.1642833328247075,15.4212533,73.981285,0.0,0.6794706554271662,0.0,0.13793477512034447,0.007714149008670299
4a6ed954-91e6-40a0-a254-bc202c16cf87,6,1767701766655,2.2410002,-7.7569504,-5.31195,-0.11825,0.0119624995,0.07425,0.1392679214477539,-0.5230076313018799,-0.1603246307373051,15.4212533,73.981285,0.0,0.5644789841663144,0.0,0.14014002424106933,0.006621613303393905
4a6ed954-91e6-40a0-a254-bc202c16cf87,6,1767701766666,2.2410002,-7.7569504,-5.31195,-0.11825,0.0119624995,0.07425,0.1392679214477539,-0.5230076313018799,-0.1603246307373051,15.4212533,73.981285,0.0,0.5644789841663144,0.0,0.14014002424106933,0.005740794888836357
4a6ed954-91e6-40a0-a254-bc202c16cf87,6,1767701766677,2.05005,-7.7569504,-5.2540503,-0.1071125,0.0160875,0.059125,0.1410307884216308,-0.3283053636550903,-0.2261396026611333,15.4212533,73.981285,0.0,0.4228631161253759,0.0,0.12340040898433036,-0.009556963221892196
4a6ed954-91e6-40a0-a254-bc202c16cf87,6,1767701766688,2.05005,-7.7569504,-5.2540503,-0.1071125,0.0160875,0.059125,0.1410307884216308,-0.3283053636550903,-0.2261396026611333,15.4212533,73.981285,0.0,0.4228631161253759,0.0,0.12340040898433036,-0.006014718288718829
4a6ed954-91e6-40a0-a254-bc202c16cf87,6,1767701766699,1.9159501,-7.6990504,-5.1589503,-0.08525,0.0276375,0.030524999,0.1629610061645507,-0.2009625434875488,-0.3498683547973638,15.4212533,73.981285,0.0,0.4351437683154404,0.0,0.09467401686946637,-0.029400174825905255
4a6ed954-91e6-40a0-a254-bc202c16cf87,6,1767701766709,1.9159501,-7.6990504,-5.1589503,-0.08525,0.0276375,0.030524999,0.1629610061645507,-0.2009625434875488,-0.3498683547973638,15.4212533,73.981285,0.0,0.4351437683154404,0.0,0.09467401686946637,-0.02259895239264079
4a6ed954-91e6-40a0-a254-bc202c16cf87,6,1767701766720,1.7629501,-7.7760005,-5.1390004,-0.0622875,0.070125,-0.0199375,0.1761713027954101,-0.0254616141319274,-0.3257041549682622,15.4212533,73.981285,0.0,0.3711708747819864,0.0,0.0958892704503481,-0.01346823310220068
4a6ed954-91e6-40a0-a254-bc202c16cf87,6,1767701766731,1.7629501,-7.7760005,-5.1390004,-0.0622875,0.070125,-0.0199375,0.1761713027954101,-0.0254616141319274,-0.3257041549682622,15.4212533,73.981285,0.0,0.3711708747819864,0.0,0.0958892704503481,-0.004780749026136498
4a6ed954-91e6-40a0-a254-bc202c16cf87,6,1767701766742,1.743,-7.7760005,-5.2540503,-0.042625,0.0820875,-0.0287375,0.0800585746765136,-0.0129700303077697,-0.2652240371704106,15.4212533,73.981285,0.0,0.2773470514687162,0.0,0.09685603846689168,0.005301604700067685
4a6ed954-91e6-40a0-a254-bc202c16cf87,6,1767701766753,1.743,-7.7760005,-5.2540503,-0.042625,0.0820875,-0.0287375,0.0800585746765136,-0.0129700303077697,-0.2652240371704106,15.4212533,73.981285,0.0,0.2773470514687162,0.0,0.09685603846689168,0.014482268236705181
4a6ed954-91e6-40a0-a254-bc202c16cf87,6,1767701766764,1.743,-7.7760005,-5.2540503,-0.042625,0.0820875,-0.0287375,0.0800585746765136,-0.0129700303077697,-0.2652240371704106,15.4212533,73.981285,0.0,0.2773470514687162,0.0,0.09685603846689168,0.023324842559783353
4a6ed954-91e6-40a0-a254-bc202c16cf87,6,1767701766775,1.8199501,-7.79505,-5.3310003,0.011,0.0617375,-0.0350625,0.052520751953125,-0.0733149051666259,-0.193010864257813,15.4212533,73.981285,0.0,0.2130415415520197,0.0,0.07184634863721329,0.006361234801391148
4a6ed954-91e6-40a0-a254-bc202c16cf87,6,1767701766786,1.8199501,-7.79505,-5.3310003,0.011,0.0617375,-0.0350625,0.052520751953125,-0.0733149051666259,-0.193010864257813,15.4212533,73.981285,0.0,0.2130415415520197,0.0,0.07184634863721329,0.013096676334210895
4a6ed954-91e6-40a0-a254-bc202c16cf87,6,1767701766796,1.7820001,-7.7179503,-5.3500504,0.03355,0.0363,-0.0402875,-0.0213904380798339,-0.053543746471405,-0.2516503906250005,15.4212533,73.981285,0.0,0.2581712662732951,0.0,0.06376813590069887,0.009893190537556697
4a6ed954-91e6-40a0-a254-bc202c16cf87,6,1767701766807,1.7820001,-7.7179503,-5.3500504,0.03355,0.0363,-0.0402875,-0.0213904380798339,-0.053543746471405,-0.2516503906250005,15.4212533,73.981285,0.0,0.2581712662732951,0.0,0.06376813590069887,0.012362849184052283
4a6ed954-91e6-40a0-a254-bc202c16cf87,6,1767701766818,1.6480501,-7.6800003,-5.31195,0.040975,0.013612499,-0.039049998,-0.0643782615661621,0.0727218389511108,-0.3281293487548833,15.4212533,73.981285,0.0,0.3422015428618292,0.0,0.05821643322829908,0.006397282644087956
4a6ed954-91e6-40a0-a254-bc202c16cf87,6,1767701766828,1.6480501,-7.6800003,-5.31195,0.040975,0.013612499,-0.039049998,-0.0643782615661621,0.0727218389511108,-0.3281293487548833,15.4212533,73.981285,0.0,0.3422015428618292,0.0,0.05821643322829908,0.0027582522655972943
4a6ed954-91e6-40a0-a254-bc202c16cf87,6,1767701766839,1.4940001,-7.6990504,-5.3689504,0.0424875,-0.01485,-0.0204875,-0.161135196685791,0.212926983833313,-0.3093829727172856,15.4212533,73.981285,0.0,0.4086811420443879,0.0,0.049451469265331234,-0.013005359712137813
4a6ed954-91e6-40a0-a254-bc202c16cf87,6,1767701766849,1.4940001,-7.6990504,-5.3689504,0.0424875,-0.01485,-0.0204875,-0.161135196685791,0.212926983833313,-0.3093829727172856,15.4212533,73.981285,0.0,0.4086811420443879,0.0,0.049451469265331234,-0.02323402507667227
4a6ed954-91e6-40a0-a254-bc202c16cf87,6,1767701766860,1.4940001,-7.6990504,-5.3689504,0.0424875,-0.01485,-0.0204875,-0.161135196685791,0.212926983833313,-0.3093829727172856,15.4212533,73.981285,0.0,0.4086811420443879,0.0,0.049451469265331234,-0.03626821386192685
4a6ed954-91e6-40a0-a254-bc202c16cf87,7,1767701766871,1.4940001,-7.6990504,-5.44605,0.0418,-0.0521125,0.031075,-0.2256350517272949,0.192817211151123,-0.2664771652221684,15.4212533,73.981285,0.0,0.3988730788971834,0.0,0.07367908985085253,-0.027165607059647053
4a6ed954-91e6-40a0-a254-bc202c16cf87,7,1767701766881,1.4940001,-7.6990504,-5.44605,0.0418,-0.0521125,0.031075,-0.2256350517272949,0.192817211151123,-0.2664771652221684,15.4212533,73.981285,0.0,0.3988730788971834,0.0,0.07367908985085253,-0.0434210425762894
4a6ed954-91e6-40a0-a254-bc202c16cf87,7,1767701766892,1.5520501,-7.6420503,-5.3689504,0.0331375,-0.108075,0.1241625,-0.1683297157287597,0.1167430877685546,-0.3446155166625981,15.4212533,73.981285,0.0,0.4009035994646232,0.0,0.16791255443682584,0.03455080527579933
4a6ed954-91e6-40a0-a254-bc202c16cf87,7,1767701766903,1.5520501,-7.6420503,-5.3689504,0.0331375,-0.108075,0.1241625,-0.1683297157287597,0.1167430877685546,-0.3446155166625981,15.4212533,73.981285,0.0,0.4009035994646232,0.0,0.16791255443682584,0.01946120431870081
4a6ed954-91e6-40a0-a254-bc202c16cf87,7,1767701766913,1.743,-7.5840006,-5.3689504,0.0268125,-0.1233375,0.149325,-0.1215262413024902,-0.1128572225570678,-0.3573146438598638,15.4212533,73.981285,0.0,0.3939278293356638,0.0,0.19552238922307594,0.034262606908027626
4a6ed954-91e6-40a0-a254-bc202c16cf87,7,1767701766924,1.743,-7.5840006,-5.3689504,0.0268125,-0.1233375,0.149325,-0.1215262413024902,-0.1128572225570678,-0.3573146438598638,15.4212533,73.981285,0.0,0.3939278293356638,0.0,0.19552238922307594,0.024657017107677922
4a6ed954-91e6-40a0-a254-bc202c16cf87,7,1767701766935,1.8970501,-7.623,-5.427,0.022824999,-0.1285625,0.13585,-0.0837917327880859,-0.291375994682312,-0.2669749832153325,15.4212533,73.981285,0.0,0.4039760715977665,0.0,0.18842642990196468,0.011795675539308683
4a6ed954-91e6-40a0-a254-bc202c16cf87,7,1767701766945,1.8970501,-7.623,-5.427,0.022824999,-0.1285625,0.13585,-0.0837917327880859,-0.291375994682312,-0.2669749832153325,15.4212533,73.981285,0.0,0.4039760715977665,0.0,0.18842642990196468,0.010161544646484747
4a6ed954-91e6-40a0-a254-bc202c16cf87,7,1767701766956,1.8970501,-7.623,-5.427,0.022824999,-0.1285625,0.13585,-0.0837917327880859,-0.291375994682312,-0.2669749832153325,15.4212533,73.981285,0.0,0.4039760715977665,0.0,0.18842642990196468,0.012583412678842896
4a6ed954-91e6-40a0-a254-bc202c16cf87,7,1767701766967,1.9540501,-7.6420503,-5.5030503,-0.0037125,-0.1238875,0.0845625,-0.1016373634338378,-0.384648323059082,-0.2003932571411137,15.4212533,73.981285,0.0,0.445468229602932,0.0,0.15004236641279023,-0.01974180466979723
4a6ed954-91e6-40a0-a254-bc202c16cf87,7,1767701766978,1.9540501,-7.6420503,-5.5030503,-0.0037125,-0.1238875,0.0845625,-0.1016373634338378,-0.384648323059082,-0.2003932571411137,15.4212533,73.981285,0.0,0.445468229602932,0.0,0.15004236641279023,-0.010749466995424442
4a6ed954-91e6-40a0-a254-bc202c16cf87,7,1767701766988,1.9159501,-7.6039505,-5.484,-0.0380875,-0.1093125,0.0578875,-0.0994205474853515,-0.3781101703643799,-0.2490172958374028,15.4212533,73.981285,0.0,0.463531401116947,0.0,0.12942504768687552,-0.020343162387120337
4a6ed954-91e6-40a0-a254-bc202c16cf87,7,1767701766999,1.9159501,-7.6039505,-5.484,-0.0380875,-0.1093125,0.0578875,-0.0994205474853515,-0.3781101703643799,-0.2490172958374028,15.4212533,73.981285,0.0,0.463531401116947,0.0,0.12942504768687552,-0.008289736319860904
4a6ed954-91e6-40a0-a254-bc202c16cf87,7,1767701767010,1.8970501,-7.5649505,-5.46495,-0.06875,-0.085525,0.0286,-0.0866127014160156,-0.3810868263244629,-0.2947345352172856,15.4212533,73.981285,0.0,0.4894868491536628,0.0,0.11339774303309569,-0.01223430188491276
4a6ed954-91e6-40a0-a254-bc202c16cf87,7,1767701767021,1.8970501,-7.5649505,-5.46495,-0.06875,-0.085525,0.0286,-0.0866127014160156,-0.3810868263244629,-0.2947345352172856,15.4212533,73.981285,0.0,0.4894868491536628,0.0,0.11339774303309569,-0.001031688846543831
4a6ed954-91e6-40a0-a254-bc202c16cf87,7,1767701767031,1.8199501,-7.5460505,-5.44605,-0.0735625,-0.0713625,0.001375,-0.081850528717041,-0.3150926828384399,-0.3332601165771489,15.4212533,73.981285,0.0,0.4658811148035513,0.0,0.10249848017165913,-0.0023549506603813128
4a6ed954-91e6-40a0-a254-bc202c16cf87,7,1767701767042,1.8199501,-7.5460505,-5.44605,-0.0735625,-0.0713625,0.001375,-0.081850528717041,-0.3150926828384399,-0.3332601165771489,15.4212533,73.981285,0.0,0.4658811148035513,0.0,0.10249848017165913,0.0050602938565954
4a6ed954-91e6-40a0-a254-bc202c16cf87,7,1767701767053,1.8199501,-7.5460505,-5.44605,-0.0735625,-0.0713625,0.001375,-0.081850528717041,-0.3150926828384399,-0.3332601165771489,15.4212533,73.981285,0.0,0.4658811148035513,0.0,0.10249848017165913,0.010018849346908306
4a6ed954-91e6-40a0-a254-bc202c16cf87,7,1767701767063,1.8390001,-7.5270004,-5.4079504,-0.0727375,-0.0653125,-0.020075,-0.031750202178955,-0.3278119564056396,-0.3667407608032231,15.4212533,73.981285,0.0,0.4929173761751805,0.0,0.09979715520745067,0.009765632438900657
4a6ed954-91e6-40a0-a254-bc202c16cf87,7,1767701767074,1.8390001,-7.5270004,-5.4079504,-0.0727375,-0.0653125,-0.020075,-0.031750202178955,-0.3278119564056396,-0.3667407608032231,15.4212533,73.981285,0.0,0.4929173761751805,0.0,0.09979715520745067,0.009876972479248309
4a6ed954-91e6-40a0-a254-bc202c16cf87,7,1767701767085,1.9159501,-7.5649505,-5.3880005,-0.07095,-0.0427625,-0.0408375,0.0485072135925293,-0.373310923576355,-0.3343358612060552,15.4212533,73.981285,0.0,0.5034823368503973,0.0,0.09235927301846848,0.0005851414376244989
4a6ed954-91e6-40a0-a254-bc202c16cf87,7,1767701767096,1.9159501,-7.5649505,-5.3880005,-0.07095,-0.0427625,-0.0408375,0.0485072135925293,-0.373310923576355,-0.3343358612060552,15.4212533,73.981285,0.0,0.5034823368503973,0.0,0.09235927301846848,-0.0027057521738262044
4a6ed954-91e6-40a0-a254-bc202c16cf87,7,1767701767106,1.9350001,-7.6420503,-5.4079504,-0.0671,-0.0198,-0.0600875,0.0908155441284179,-0.3532582521438598,-0.2570901489257817,15.4212533,73.981285,0.0,0.446244552277959,0.0,0.09222232731963557,-0.006934515988763711
4a6ed954-91e6-40a0-a254-bc202c16cf87,7,1767701767117,1.9350001,-7.6420503,-5.4079504,-0.0671,-0.0198,-0.0600875,0.0908155441284179,-0.3532582521438598,-0.2570901489257817,15.4212533,73.981285,0.0,0.446244552277959,0.0,0.09222232731963557,-0.011138451861751199
4a6ed954-91e6-40a0-a254-bc202c16cf87,7,1767701767128,1.9350001,-7.6420503,-5.4079504,-0.0671,-0.0198,-0.0600875,0.0908155441284179,-0.3532582521438598,-0.2570901489257817,15.4212533,73.981285,0.0,0.446244552277959,0.0,0.09222232731963557,-0.014771025545545564
4a6ed954-91e6-40a0-a254-bc202c16cf87,7,1767701767139,1.9540501,-7.66095,-5.4079504,-0.054175,0.01815,-0.090475,0.1155643463134765,-0.342015266418457,-0.2379537200927739,15.4212533,73.981285,0.0,0.4323789235244237,0.0,0.10700504076911517,-0.002429776764273023
4a6ed954-91e6-40a0-a254-bc202c16cf87,7,1767701767149,1.8769501,-7.6420503,-5.44605,-0.047025,0.0446875,-0.0977625,0.0518689155578613,-0.2558563947677612,-0.2436414337158208,15.4212533,73.981285,0.0,0.357091063130689,0.0,0.1173278725942817,0.007143780979830451
4a6ed954-91e6-40a0-a254-bc202c16cf87,7,1767701767160,1.8769501,-7.6420503,-5.44605,-0.047025,0.0446875,-0.0977625,0.0518689155578613,-0.2558563947677612,-0.2436414337158208,15.4212533,73.981285,0.0,0.357091063130689,0.0,0.1173278725942817,0.008422270308655024
4a6ed954-91e6-40a0-a254-bc202c16cf87,7,1767701767171,1.8769501,-7.6420503,-5.44605,-0.047025,0.0446875,-0.0977625,0.0518689155578613,-0.2558563947677612,-0.2436414337158208,15.4212533,73.981285,0.0,0.357091063130689,0.0,0.1173278725942817,0.01186483064767186
4a6ed954-91e6-40a0-a254-bc202c16cf87,7,1767701767182,1.7820001,-7.6800003,-5.44605,-0.040425,0.050325,-0.086899996,0.0367798805236816,-0.1252475976943969,-0.2287498092651372,15.4212533,73.981285,0.0,0.2633746297166651,0.0,0.10825153834842263,0.008316027440335287
4a6ed954-91e6-40a0-a254-bc202c16cf87,7,1767701767193,1.7820001,-7.6800003,-5.44605,-0.040425,0.050325,-0.086899996,0.0367798805236816,-0.1252475976943969,-0.2287498092651372,15.4212533,73.981285,0.0,0.2633746297166651,0.0,0.10825153834842263,0.01563854836886658
4a6ed954-91e6-40a0-a254-bc202c16cf87,7,1767701767203,1.60905,-7.66095,-5.44605,-0.0292875,0.0243375,-0.0625625,-0.0329461097717285,0.0519438982009887,-0.2740216827392583,15.4212533,73.981285,0.0,0.2808406974080861,0.0,0.0732402755917125,-0.01073011082521411
4a6ed954-91e6-40a0-a254-bc202c16cf87,7,1767701767214,1.60905,-7.66095,-5.44605,-0.0292875,0.0243375,-0.0625625,-0.0329461097717285,0.0519438982009887,-0.2740216827392583,15.4212533,73.981285,0.0,0.2808406974080861,0.0,0.0732402755917125,-0.001381826986062417
4a6ed954-91e6-40a0-a254-bc202c16cf87,7,1767701767225,1.60905,-7.6039505,-5.3880005,-0.018424999,0.00605,-0.0540375,-0.0125179290771484,0.058377981185913,-0.352932510375977,15.4212533,73.981285,0.0,0.3579469850634483,0.0,0.05741197169928935,-0.007849676720128021
4a6ed954-91e6-40a0-a254-bc202c16cf87,7,1767701767235,1.60905,-7.6039505,-5.3880005,-0.018424999,0.00605,-0.0540375,-0.0125179290771484,0.058377981185913,-0.352932510375977,15.4212533,73.981285,0.0,0.3579469850634483,0.0,0.05741197169928935,0.0008192087192465395
4a6ed954-91e6-40a0-a254-bc202c16cf87,7,1767701767246,1.60905,-7.6039505,-5.3880005,-0.018424999,0.00605,-0.0540375,-0.0125179290771484,0.058377981185913,-0.352932510375977,15.4212533,73.981285,0.0,0.3579469850634483,0.0,0.05741197169928935,0.008152451967342418
4a6ed954-91e6-40a0-a254-bc202c16cf87,7,1767701767257,1.5520501,-7.4689503,-5.2930503,-0.009625,-0.0202125,0.005225,-0.0215072631835937,0.0938473939895629,-0.5255370712280278,15.4212533,73.981285,0.0,0.5342837345111807,0.0,0.02298883220718269,-0.020794065785176303
4a6ed954-91e6-40a0-a254-bc202c16cf87,7,1767701767268,1.5520501,-7.4689503,-5.2930503,-0.009625,-0.0202125,0.005225,-0.0215072631835937,0.0938473939895629,-0.5255370712280278,15.4212533,73.981285,0.0,0.5342837345111807,0.0,0.02298883220718269,-0.01752157937217744
4a6ed954-91e6-40a0-a254-bc202c16cf87,7,1767701767278,1.6669501,-7.5460505,-5.3500504,-0.0075625,-0.0275,0.038775,0.0152168273925781,0.0008282661437988281,-0.4108281707763677,15.4212533,73.981285,0.0,0.4111107195928571,0.0,0.04813462403769245,0.008550854558422666
4a6ed954-91e6-40a0-a254-bc202c16cf87,7,1767701767289,1.6669501,-7.5460505,-5.3500504,-0.0075625,-0.0275,0.038775,0.0152168273925781,0.0008282661437988281,-0.4108281707763677,15.4212533,73.981285,0.0,0.4111107195928571,0.0,0.04813462403769245,0.007207205323001265
4a6ed954-91e6-40a0-a254-bc202c16cf87,7,1767701767300,1.743,-7.66095,-5.3500504,0.0045375,-0.0253,0.045925,0.1018934249877929,-0.0379213094711303,-0.305294570922852,15.4212533,73.981285,0.0,0.3240757176999174,0.0,0.052628742444124584,0.008370244606926707
4a6ed954-91e6-40a0-a254-bc202c16cf87,7,1767701767311,1.743,-7.66095,-5.3500504,0.0045375,-0.0253,0.045925,0.1018934249877929,-0.0379213094711303,-0.305294570922852,15.4212533,73.981285,0.0,0.3240757176999174,0.0,0.052628742444124584,0.0035121459225308693
4a6ed954-91e6-40a0-a254-bc202c16cf87,7,1767701767321,1.8199501,-7.7380505,-5.46495,0.0198,-0.032175,0.036575,0.0756206512451171,-0.1134897470474243,-0.1644435501098637,15.4212533,73.981285,0.0,0.2136354061300684,0.0,0.05258327918644862,-0.002326798230373722
4a6ed954-91e6-40a0-a254-bc202c16cf87,7,1767701767332,1.8199501,-7.7380505,-5.46495,0.0198,-0.032175,0.036575,0.0756206512451171,-0.1134897470474243,-0.1644435501098637,15.4212533,73.981285,0.0,0.2136354061300684,0.0,0.05258327918644862,-0.008391355874442537
4a6ed954-91e6-40a0-a254-bc202c16cf87,7,1767701767343,1.8390001,-7.8139505,-5.427,0.025024999,-0.0515625,0.0215875,0.1440153121948242,-0.1052634716033935,-0.1218467330932622,15.4212533,73.981285,0.0,0.2160264682071893,0.0,0.061245098885135296,-0.00539397588339578
4a6ed954-91e6-40a0-a254-bc202c16cf87,7,1767701767353,1.8390001,-7.8139505,-5.427,0.025024999,-0.0515625,0.0215875,0.1440153121948242,-0.1052634716033935,-0.1218467330932622,15.4212533,73.981285,0.0,0.2160264682071893,0.0,0.061245098885135296,-0.010047658417006947
4a6ed954-91e6-40a0-a254-bc202c16cf87,7,1767701767364,1.8390001,-7.8139505,-5.427,0.025024999,-0.0515625,0.0215875,0.1440153121948242,-0.1052634716033935,-0.1218467330932622,15.4212533,73.981285,0.0,0.2160264682071893,0.0,0.061245098885135296,-0.013203556261987104
4a6ed954-91e6-40a0-a254-bc202c16cf87,7,1767701767375,1.8010501,-7.6420503,-5.3310003,0.0418,-0.0798875,0.003575,0.1181087493896484,-0.1187647581100463,-0.3212571716308599,15.4212533,73.981285,0.0,0.3622994821630089,0.0,0.0902332160639861,0.014437621405254288
4a6ed954-91e6-40a0-a254-bc202c16cf87,7,1767701767386,1.8010501,-7.6420503,-5.3310003,0.0418,-0.0798875,0.003575,0.1181087493896484,-0.1187647581100463,-0.3212571716308599,15.4212533,73.981285,0.0,0.3622994821630089,0.0,0.0902332160639861,0.014999913840886284
4a6ed954-91e6-40a0-a254-bc202c16cf87,7,1767701767397,1.8010501,-7.6420503,-5.3310003,0.0418,-0.0798875,0.003575,0.1181087493896484,-0.1187647581100463,-0.3212571716308599,15.4212533,73.981285,0.0,0.3622994821630089,0.0,0.0902332160639861,0.017348499475720664
4a6ed954-91e6-40a0-a254-bc202c16cf87,7,1767701767408,1.8010501,-7.4500504,-5.274,0.039049998,-0.077,0.009075,0.066293716430664,-0.1837533712387085,-0.5081735229492192,15.4212533,73.981285,0.0,0.5444267514610213,0.0,0.08681162346598527,0.017729636689601484
4a6ed954-91e6-40a0-a254-bc202c16cf87,7,1767701767419,1.7629501,-7.7569504,-5.484,0.0284625,-0.0605,0.0171875,0.0280170440673828,-0.0953658819198608,-0.1485963439941411,15.4212533,73.981285,0.0,0.1787749413118394,0.0,0.06903458598774966,0.004708896642325647
4a6ed954-91e6-40a0-a254-bc202c16cf87,7,1767701767430,1.7629501,-7.7569504,-5.484,0.0284625,-0.0605,0.0171875,0.0280170440673828,-0.0953658819198608,-0.1485963439941411,15.4212533,73.981285,0.0,0.1787749413118394,0.0,0.06903458598774966,0.00981386143442188
4a6ed954-91e6-40a0-a254-bc202c16cf87,7,1767701767441,2.4139502,-7.9480505,-5.7520504,0.0242,-0.0374,0.0218625,0.133948802947998,-0.6858410835266113,0.2695040130615229,15.4212533,73.981285,0.0,0.7489677474500643,0.0,0.049622262204075306,-0.00477413755809058
4a6ed954-91e6-40a0-a254-bc202c16cf87,7,1767701767451,2.4139502,-7.9480505,-5.7520504,0.0242,-0.0374,0.0218625,0.133948802947998,-0.6858410835266113,0.2695040130615229,15.4212533,73.981285,0.0,0.7489677474500643,0.0,0.049622262204075306,-0.0007992734540429248
4a6ed954-91e6-40a0-a254-bc202c16cf87,7,1767701767462,1.9920001,-7.3159504,-5.3500504,0.0078375,-0.010725,0.01045,-0.0037789344787597,-0.432509183883667,-0.5403104400634771,15.4212533,73.981285,0.0,0.6921082618572753,0.0,0.016901317441252915,-0.030825932258891832
4a6ed954-91e6-40a0-a254-bc202c16cf87,7,1767701767473,1.9920001,-7.3159504,-5.3500504,0.0078375,-0.010725,0.01045,-0.0037789344787597,-0.432509183883667,-0.5403104400634771,15.4212533,73.981285,0.0,0.6921082618572753,0.0,0.016901317441252915,-0.02964849554485244
4a6ed954-91e6-40a0-a254-bc202c16cf87,7,1767701767484,1.9920001,-7.3159504,-5.3500504,0.0078375,-0.010725,0.01045,-0.0037789344787597,-0.432509183883667,-0.5403104400634771,15.4212533,73.981285,0.0,0.6921082618572753,0.0,0.016901317441252915,-0.030002086471780053
4a6ed954-91e6-40a0-a254-bc202c16cf87,7,1767701767495,1.9350001,-7.6800003,-5.1390004,-0.0017875,0.032449998,-0.0163625,0.3174691200256347,-0.2126232385635376,-0.3765502548217778,15.4212533,73.981285,0.0,0.5364563152330707,0.0,0.036385834231195034,-0.012202058447873443
4a6ed954-91e6-40a0-a254-bc202c16cf87,7,1767701767505,1.9350001,-7.6800003,-5.1390004,-0.0017875,0.032449998,-0.0163625,0.3174691200256347,-0.2126232385635376,-0.3765502548217778,15.4212533,73.981285,0.0,0.5364563152330707,0.0,0.036385834231195034,-0.014844861294920533
4a6ed954-91e6-40a0-a254-bc202c16cf87,7,1767701767516,1.8199501,-7.7380505,-5.2930503,0.0,0.0600875,-0.065725,0.1728992462158203,-0.1102939844131469,-0.2620168304443364,15.4212533,73.981285,0.0,0.3327337250352337,0.0,0.0890521379937057,0.034696721412668635
4a6ed954-91e6-40a0-a254-bc202c16cf87,7,1767701767527,1.8199501,-7.7380505,-5.2930503,0.0,0.0600875,-0.065725,0.1728992462158203,-0.1102939844131469,-0.2620168304443364,15.4212533,73.981285,0.0,0.3327337250352337,0.0,0.0890521379937057,0.03158727278700375
4a6ed954-91e6-40a0-a254-bc202c16cf87,7,1767701767538,1.3990501,-7.7380505,-5.8099504,0.0059125,0.057475,-0.078925,-0.398618221282959,0.1969667673110962,-0.0430865859985356,15.4212533,73.981285,0.0,0.4467089070712411,0.0,0.09781354152800112,0.03769016816427213
4a6ed954-91e6-40a0-a254-bc202c16cf87,7,1767701767548,1.3990501,-7.7380505,-5.8099504,0.0059125,0.057475,-0.078925,-0.398618221282959,0.1969667673110962,-0.0430865859985356,15.4212533,73.981285,0.0,0.4467089070712411,0.0,0.09781354152800112,0.035789670133617286
4a6ed954-91e6-40a0-a254-bc202c16cf87,7,1767701767559,2.2030501,-7.7760005,-5.3310003,0.0111375,0.0215875,-0.04455,0.2778744697570801,-0.4059505462646484,-0.1406055068969731,15.4212533,73.981285,0.0,0.5116443838498568,0.0,0.05074215764529529,-0.012286653943738124
4a6ed954-91e6-40a0-a254-bc202c16cf87,7,1767701767570,2.2030501,-7.7760005,-5.3310003,0.0111375,0.0215875,-0.04455,0.2778744697570801,-0.4059505462646484,-0.1406055068969731,15.4212533,73.981285,0.0,0.5116443838498568,0.0,0.05074215764529529,-0.01243763471771103
4a6ed954-91e6-40a0-a254-bc202c16cf87,7,1767701767581,2.2030501,-7.7760005,-5.3310003,0.0111375,0.0215875,-0.04455,0.2778744697570801,-0.4059505462646484,-0.1406055068969731,15.4212533,73.981285,0.0,0.5116443838498568,0.0,0.05074215764529529,-0.011934936006376715
4a6ed954-91e6-40a0-a254-bc202c16cf87,7,1767701767592,2.1070502,-7.4890504,-5.1199503,0.0066,0.007975,-0.0419375,0.2659268379211426,-0.3609503507614136,-0.5073943710327153,15.4212533,73.981285,0.0,0.6770903090409801,0.0,0.043196232836324976,-0.018639469755226245
4a6ed954-91e6-40a0-a254-bc202c16cf87,7,1767701767603,2.1070502,-7.4890504,-5.1199503,0.0066,0.007975,-0.0419375,0.2659268379211426,-0.3609503507614136,-0.5073943710327153,15.4212533,73.981285,0.0,0.6770903090409801,0.0,0.043196232836324976,-0.01783145026599249
4a6ed954-91e6-40a0-a254-bc202c16cf87,7,1767701767613,1.9920001,-7.7760005,-5.1390004,0.009075,0.000275,-0.051975,0.3425698280334472,-0.1519802808761596,-0.2861791229248052,15.4212533,73.981285,0.0,0.4715406485681513,0.0,0.05276203061861816,-0.007859533955491852
4a6ed954-91e6-40a0-a254-bc202c16cf87,7,1767701767624,1.9920001,-7.7760005,-5.1390004,0.009075,0.000275,-0.051975,0.3425698280334472,-0.1519802808761596,-0.2861791229248052,15.4212533,73.981285,0.0,0.4715406485681513,0.0,0.05276203061861816,-0.008166082260907677
4a6ed954-91e6-40a0-a254-bc202c16cf87,7,1767701767635,1.5330001,-7.8139505,-5.2540503,0.016224999,0.0023375,-0.0738375,0.0958671569824218,0.2724453210830688,-0.2743020629882817,15.4212533,73.981285,0.0,0.3983197039158069,0.0,0.07563524909094965,0.01347611068257687
4a6ed954-91e6-40a0-a254-bc202c16cf87,7,1767701767646,1.5330001,-7.8139505,-5.2540503,0.016224999,0.0023375,-0.0738375,0.0958671569824218,0.2724453210830688,-0.2743020629882817,15.4212533,73.981285,0.0,0.3983197039158069,0.0,0.07563524909094965,0.011232480159746856
4a6ed954-91e6-40a0-a254-bc202c16cf87,7,1767701767657,1.8580501,-7.6990504,-5.31195,0.022275,-0.0075625,-0.069025,0.0991716384887695,-0.0541105270385742,-0.2741819000244145,15.4212533,73.981285,0.0,0.2965445621115611,0.0,0.07292336838250137,0.005307707760743946
4a6ed954-91e6-40a0-a254-bc202c16cf87,7,1767701767668,1.8580501,-7.6990504,-5.31195,0.022275,-0.0075625,-0.069025,0.0991716384887695,-0.0541105270385742,-0.2741819000244145,15.4212533,73.981285,0.0,0.2965445621115611,0.0,0.07292336838250137,0.0012929083301266907
4a6ed954-91e6-40a0-a254-bc202c16cf87,7,1767701767679,2.088,-7.66095,-5.21595,0.0413875,-0.0166375,-0.0614625,0.2349381446838379,-0.2481359243392944,-0.3158307647705083,15.4212533,73.981285,0.0,0.4653132716253902,0.0,0.07594320554697438,-0.00023241032845972058
4a6ed954-91e6-40a0-a254-bc202c16cf87,7,1767701767690,2.088,-7.66095,-5.21595,0.0413875,-0.0166375,-0.0614625,0.2349381446838379,-0.2481359243392944,-0.3158307647705083,15.4212533,73.981285,0.0,0.4653132716253902,0.0,0.07594320554697438,-0.004960988037779548
4a6ed954-91e6-40a0-a254-bc202c16cf87,7,1767701767701,2.088,-7.66095,-5.21595,0.0413875,-0.0166375,-0.0614625,0.2349381446838379,-0.2481359243392944,-0.3158307647705083,15.4212533,73.981285,0.0,0.4653132716253902,0.0,0.07594320554697438,-0.009485124553836986
4a6ed954-91e6-40a0-a254-bc202c16cf87,7,1767701767712,1.72395,-7.7569504,-5.0820003,0.0671,-0.0226875,-0.0584375,0.2423434257507324,0.1490998268127441,-0.381954727172852,15.4212533,73.981285,0.0,0.4762882614235615,0.0,0.091826325541753,0.002470253449444388
