session_id,window_id,timestamp,accel_x,accel_y,accel_z,gyro_x,gyro_y,gyro_z,linear_accel_x,linear_accel_y,linear_accel_z,latitude,longitude,speed,vibration_intensity,anomaly_score,raw_magnitude,vibration_only
821572a8-af7e-40f4-b67b-c360eee2f132,5,1767701551274,3.7159503,-6.972,-5.5800004,0.0262625,0.0961125,-0.024475,-0.321962833404541,0.6702824831008911,-0.1663232421875005,15.4210883,73.981165,0.12559222,0.7619725022187733,0.0,0.10259803695734145,0.01166484123944454
821572a8-af7e-40f4-b67b-c360eee2f132,5,1767701551284,3.7159503,-6.972,-5.5800004,0.0262625,0.0961125,-0.024475,-0.321962833404541,0.6702824831008911,-0.1663232421875005,15.4210883,73.981165,0.12559222,0.7619725022187733,0.0,0.10259803695734145,0.009183123870145084
821572a8-af7e-40f4-b67b-c360eee2f132,5,1767701551295,3.5629501,-6.7039504,-5.71395,0.0273625,0.0928125,-0.0176,-0.0443668365478515,0.5009021759033203,-0.321377334594727,15.4210883,73.981165,0.12559222,0.5967870618580431,0.0,0.09834951226366098,0.002741919393891256
821572a8-af7e-40f4-b67b-c360eee2f132,5,1767701551306,3.5629501,-6.7039504,-5.71395,0.0273625,0.0928125,-0.0176,-0.0443668365478515,0.5009021759033203,-0.321377334594727,15.4210883,73.981165,0.12559222,0.5967870618580431,0.0,0.09834951226366098,0.0010095081076063256
821572a8-af7e-40f4-b67b-c360eee2f132,5,1767701551316,3.5629501,-6.7039504,-5.71395,0.0273625,0.0928125,-0.0176,-0.0443668365478515,0.5009021759033203,-0.321377334594727,15.4210883,73.981165,0.12559222,0.5967870618580431,0.0,0.09834951226366098,-0.0001538556561351689
821572a8-af7e-40f4-b67b-c360eee2f132,5,1767701551327,3.6769502,-6.60795,-5.8099504,0.0215875,0.0889625,-0.00165,0.1089758872985839,0.5669054985046387,-0.2912145233154302,15.4210883,73.981165,0.12559222,0.6465782913438556,0.0,0.09155910147276457,-0.0074795070272259895
821572a8-af7e-40f4-b67b-c360eee2f132,5,1767701551338,3.6769502,-6.60795,-5.8099504,0.0215875,0.0889625,-0.00165,0.1089758872985839,0.5669054985046387,-0.2912145233154302,15.4210883,73.981165,0.12559222,0.6465782913438556,0.0,0.09155910147276457,-0.007358621470834128
821572a8-af7e-40f4-b67b-c360eee2f132,5,1767701551349,3.7729502,-6.7039504,-5.886,0.0086624995,0.0889625,0.013062499,0.1129851341247558,0.583865761756897,-0.1420388793945317,15.4210883,73.981165,0.12559222,0.6114244937396645,0.0,0.09033268613277534,-0.0077918728150882036
821572a8-af7e-40f4-b67b-c360eee2f132,5,1767701551360,3.7729502,-6.7039504,-5.886,0.0086624995,0.0889625,0.013062499,0.1129851341247558,0.583865761756897,-0.1420388793945317,15.4210883,73.981165,0.12559222,0.6114244937396645,0.0,0.09033268613277534,-0.006307271768049197
821572a8-af7e-40f4-b67b-c360eee2f132,5,1767701551371,3.69705,-6.7990503,-5.84805,-0.017324999,0.084975,0.0155375,0.0180416107177734,0.4772151708602905,-0.1215043640136723,15.4210883,73.981165,0.12559222,0.4927708691581463,0.0,0.088104030109865,-0.00633090360410554
821572a8-af7e-40f4-b67b-c360eee2f132,5,1767701551381,3.69705,-6.7990503,-5.84805,-0.017324999,0.084975,0.0155375,0.0180416107177734,0.4772151708602905,-0.1215043640136723,15.4210883,73.981165,0.12559222,0.4927708691581463,0.0,0.088104030109865,-0.003369571416585505
821572a8-af7e-40f4-b67b-c360eee2f132,5,1767701551392,3.69705,-6.7990503,-5.84805,-0.017324999,0.084975,0.0155375,0.0180416107177734,0.4772151708602905,-0.1215043640136723,15.4210883,73.981165,0.12559222,0.4927708691581463,0.0,0.088104030109865,0.0003786996736545701
821572a8-af7e-40f4-b67b-c360eee2f132,5,1767701551403,3.6390002,-6.7990503,-5.8099504,-0.0232375,0.0867625,0.00715,-0.0143113136291503,0.4094057083129883,-0.163387832641602,15.4210883,73.981165,0.12559222,0.4410367689347133,0.0,0.09010457986417783,0.006921085912445775
821572a8-af7e-40f4-b67b-c360eee2f132,5,1767701551414,3.5430002,-6.7990503,-5.7330003,-0.0303875,0.0732875,-0.01045,-0.0791435241699218,0.3218703269958496,-0.2424836730957036,15.4210883,73.981165,0.12559222,0.4106854471933894,0.0,0.0800228736830914,0.002136254147292651
821572a8-af7e-40f4-b67b-c360eee2f132,5,1767701551425,3.5430002,-6.7990503,-5.7330003,-0.0303875,0.0732875,-0.01045,-0.0791435241699218,0.3218703269958496,-0.2424836730957036,15.4210883,73.981165,0.12559222,0.4106854471933894,0.0,0.0800228736830914,0.008085886864338216
821572a8-af7e-40f4-b67b-c360eee2f132,5,1767701551436,3.5430002,-6.7990503,-5.7330003,-0.0303875,0.0732875,-0.01045,-0.0791435241699218,0.3218703269958496,-0.2424836730957036,15.4210883,73.981165,0.12559222,0.4106854471933894,0.0,0.0800228736830914,0.01451093632348872
821572a8-af7e-40f4-b67b-c360eee2f132,5,1767701551446,3.4480503,-6.7039504,-5.676,-0.0314875,0.0474375,-0.01375,-0.0675849914550781,0.2506728172302246,-0.3769956207275395,15.4210883,73.981165,0.12559222,0.457744787426207,0.0,0.05857338612800186,-0.00029092063440432
821572a8-af7e-40f4-b67b-c360eee2f132,5,1767701551457,3.4480503,-6.7039504,-5.676,-0.0314875,0.0474375,-0.01375,-0.0675849914550781,0.2506728172302246,-0.3769956207275395,15.4210883,73.981165,0.12559222,0.457744787426207,0.0,0.05857338612800186,0.00626311389727951
821572a8-af7e-40f4-b67b-c360eee2f132,5,1767701551468,3.5050502,-6.6649504,-5.71395,-0.0264,0.0314875,-0.013475,-0.0120387077331542,0.2848676443099975,-0.3614583587646489,15.4210883,73.981165,0.12559222,0.4603766396978079,0.0,0.04324347674794431,-0.002961710211688423
821572a8-af7e-40f4-b67b-c360eee2f132,5,1767701551479,3.5050502,-6.6649504,-5.71395,-0.0264,0.0314875,-0.013475,-0.0120387077331542,0.2848676443099975,-0.3614583587646489,15.4210883,73.981165,0.12559222,0.4603766396978079,0.0,0.04324347674794431,0.002333248255463583
821572a8-af7e-40f4-b67b-c360eee2f132,5,1767701551489,3.65805,-6.8380504,-5.7520504,-0.021175,-0.0006875,-0.0177375,-0.0874066352844238,0.3691931962966919,-0.1620746231079106,15.4210883,73.981165,0.12559222,0.4125672303262623,0.0,0.027631000479533853,-0.009123506429925009
821572a8-af7e-40f4-b67b-c360eee2f132,5,1767701551500,3.65805,-6.8380504,-5.7520504,-0.021175,-0.0006875,-0.0177375,-0.0874066352844238,0.3691931962966919,-0.1620746231079106,15.4210883,73.981165,0.12559222,0.4125672303262623,0.0,0.027631000479533853,-0.006367336016598773
821572a8-af7e-40f4-b67b-c360eee2f132,5,1767701551511,3.7159503,-6.8569503,-5.7910504,-0.021724999,-0.01705,-0.0056375,-0.06815767288208,0.3904078006744385,-0.1040597534179692,15.4210883,73.981165,0.12559222,0.4097464477961478,0.0,0.028186157733894858,-0.0046173330595764926
821572a8-af7e-40f4-b67b-c360eee2f132,5,1767701551521,3.7159503,-6.8569503,-5.7910504,-0.021724999,-0.01705,-0.0056375,-0.06815767288208,0.3904078006744385,-0.1040597534179692,15.4210883,73.981165,0.12559222,0.4097464477961478,0.0,0.028186157733894858,-0.0050292570316726485
821572a8-af7e-40f4-b67b-c360eee2f132,5,1767701551532,3.7159503,-6.8569503,-5.7910504,-0.021724999,-0.01705,-0.0056375,-0.06815767288208,0.3904078006744385,-0.1040597534179692,15.4210883,73.981165,0.12559222,0.4097464477961478,0.0,0.028186157733894858,-0.006974534694573711
821572a8-af7e-40f4-b67b-c360eee2f132,5,1767701551543,3.7920003,-6.78,-5.7709503,-0.0319,-0.022275,-0.004675,-0.025728702545166,0.4694300889968872,-0.1440549468994145,15.4210883,73.981165,0.12559222,0.491709672791248,0.0,0.039187258771187346,0.000726436194985997
821572a8-af7e-40f4-b67b-c360eee2f132,5,1767701551554,3.7920003,-6.78,-5.7709503,-0.0319,-0.022275,-0.004675,-0.025728702545166,0.4694300889968872,-0.1440549468994145,15.4210883,73.981165,0.12559222,0.491709672791248,0.0,0.039187258771187346,-0.0036736119229554016
821572a8-af7e-40f4-b67b-c360eee2f132,5,1767701551564,3.7920003,-6.8179502,-5.71395,-0.044275,-0.0088,0.0012375,-0.0968551635742187,0.4687627553939819,-0.1516442871093755,15.4210883,73.981165,0.12559222,0.5021109771439553,0.0,0.04515802288907255,-0.0029111643306151884
821572a8-af7e-40f4-b67b-c360eee2f132,5,1767701551575,3.7920003,-6.8179502,-5.71395,-0.044275,-0.0088,0.0012375,-0.0968551635742187,0.4687627553939819,-0.1516442871093755,15.4210883,73.981165,0.12559222,0.5021109771439553,0.0,0.04515802288907255,-0.008644405350956593
821572a8-af7e-40f4-b67b-c360eee2f132,5,1767701551586,3.7920003,-6.7990503,-5.65605,-0.0562375,0.0334125,0.032449998,-0.1302747726440429,0.4793328046798706,-0.2000823593139653,15.4210883,73.981165,0.12559222,0.5355038791067445,0.0,0.07302091435130079,0.013192059566561162
821572a8-af7e-40f4-b67b-c360eee2f132,5,1767701551597,3.7920003,-6.7990503,-5.65605,-0.0562375,0.0334125,0.032449998,-0.1302747726440429,0.4793328046798706,-0.2000823593139653,15.4210883,73.981165,0.12559222,0.5355038791067445,0.0,0.07302091435130079,0.007018367613950273
821572a8-af7e-40f4-b67b-c360eee2f132,5,1767701551607,3.7729502,-6.78,-5.7330003,-0.044825,0.06875,0.0449625,-0.0684156417846679,0.4291067123413086,-0.1724658584594731,15.4210883,73.981165,0.12559222,0.4675015967366717,0.0,0.09358135247606758,0.021299423404375933
821572a8-af7e-40f4-b67b-c360eee2f132,5,1767701551618,3.7729502,-6.78,-5.7330003,-0.044825,0.06875,0.0449625,-0.0684156417846679,0.4291067123413086,-0.1724658584594731,15.4210883,73.981165,0.12559222,0.4675015967366717,0.0,0.09358135247606758,0.014853386726252738
821572a8-af7e-40f4-b67b-c360eee2f132,5,1767701551629,3.7729502,-6.78,-5.7330003,-0.044825,0.06875,0.0449625,-0.0684156417846679,0.4291067123413086,-0.1724658584594731,15.4210883,73.981165,0.12559222,0.4675015967366717,0.0,0.09358135247606758,0.008100915117907627
821572a8-af7e-40f4-b67b-c360eee2f132,5,1767701551640,3.831,-6.7039504,-5.7910504,-0.0331375,0.0776875,0.046475,0.0301504135131835,0.4611932039260864,-0.1693463897705083,15.4210883,73.981165,0.12559222,0.4922259831733079,0.0,0.0964021119452266,0.0036875981972189545
821572a8-af7e-40f4-b67b-c360eee2f132,5,1767701551651,3.831,-6.7039504,-5.7910504,-0.0331375,0.0776875,0.046475,0.0301504135131835,0.4611932039260864,-0.1693463897705083,15.4210883,73.981165,0.12559222,0.4922259831733079,0.0,0.0964021119452266,-0.004181613376631172
821572a8-af7e-40f4-b67b-c360eee2f132,5,1767701551662,3.9259503,-6.8380504,-5.84805,-0.0221375,0.090475,0.034649998,-0.0084691047668457,0.4824377298355102,-0.0049539184570317,15.4210883,73.981165,0.12559222,0.4825374909916031,0.0,0.09938016347667175,-0.00977848370419886
821572a8-af7e-40f4-b67b-c360eee2f132,5,1767701551673,3.9259503,-6.8380504,-5.84805,-0.0221375,0.090475,0.034649998,-0.0084691047668457,0.4824377298355102,-0.0049539184570317,15.4210883,73.981165,0.12559222,0.4825374909916031,0.0,0.09938016347667175,-0.018992248152488473
821572a8-af7e-40f4-b67b-c360eee2f132,5,1767701551684,4.0410004,-6.95205,-5.71395,-0.02915,0.1038125,0.022824999,-0.1588826179504394,0.5770854949951172,0.0364012145996088,15.4210883,73.981165,0.12559222,0.5996635750526053,0.0,0.11021677837607122,-0.017767281677773424
821572a8-af7e-40f4-b67b-c360eee2f132,5,1767701551695,4.0410004,-6.95205,-5.71395,-0.02915,0.1038125,0.022824999,-0.1588826179504394,0.5770854949951172,0.0364012145996088,15.4210883,73.981165,0.12559222,0.5996635750526053,0.0,0.11021677837607122,-0.02735180705492638
821572a8-af7e-40f4-b67b-c360eee2f132,5,1767701551705,3.9460502,-6.9139504,-5.6179504,-0.039325,0.1379125,0.0072875,-0.1998844146728515,0.4911129474639892,-0.0809579467773442,15.4210883,73.981165,0.12559222,0.5363766359026826,0.0,0.14359464104728978,-0.0029439048191074874
821572a8-af7e-40f4-b67b-c360eee2f132,5,1767701551716,3.9460502,-6.9139504,-5.6179504,-0.039325,0.1379125,0.0072875,-0.1998844146728515,0.4911129474639892,-0.0809579467773442,15.4210883,73.981165,0.12559222,0.5363766359026826,0.0,0.14359464104728978,-0.010602329181322983
821572a8-af7e-40f4-b67b-c360eee2f132,5,1767701551727,3.7729502,-6.7230005,-5.65605,-0.0391875,0.1722875,0.0042625,-0.0610580444335937,0.3235657215118408,-0.2540393447875981,15.4210883,73.981165,0.12559222,0.4158832163331973,0.0,0.17673938926778604,0.01692354681608374
821572a8-af7e-40f4-b67b-c360eee2f132,5,1767701551738,3.7729502,-6.7230005,-5.65605,-0.0391875,0.1722875,0.0042625,-0.0610580444335937,0.3235657215118408,-0.2540393447875981,15.4210883,73.981165,0.12559222,0.4158832163331973,0.0,0.17673938926778604,0.014009615796938811
821572a8-af7e-40f4-b67b-c360eee2f132,5,1767701551748,3.7729502,-6.7230005,-5.65605,-0.0391875,0.1722875,0.0042625,-0.0610580444335937,0.3235657215118408,-0.2540393447875981,15.4210883,73.981165,0.12559222,0.4158832163331973,0.0,0.17673938926778604,0.01430792425670643
821572a8-af7e-40f4-b67b-c360eee2f132,5,1767701551759,3.486,-6.5500503,-5.71395,-0.033275,0.1681625,0.015125,0.0603766441345214,0.0437946319580078,-0.4452252960205083,15.4210883,73.981165,0.12559222,0.4514298097842379,0.0,0.17208898179793497,0.013434171020632917
821572a8-af7e-40f4-b67b-c360eee2f132,5,1767701551770,3.486,-6.5500503,-5.71395,-0.033275,0.1681625,0.015125,0.0603766441345214,0.0437946319580078,-0.4452252960205083,15.4210883,73.981165,0.12559222,0.4514298097842379,0.0,0.17208898179793497,0.020655915699528397
821572a8-af7e-40f4-b67b-c360eee2f132,5,1767701551781,3.3709502,-6.56895,-5.7910504,-0.027224999,0.13145,0.0199375,0.0859718322753906,-0.1136959791183471,-0.4275498962402349,15.4210883,73.981165,0.12559222,0.4506848626118955,0.0,0.13571222117701856,-0.005410860462211878
821572a8-af7e-40f4-b67b-c360eee2f132,5,1767701551792,3.3709502,-6.56895,-5.7910504,-0.027224999,0.13145,0.0199375,0.0859718322753906,-0.1136959791183471,-0.4275498962402349,15.4210883,73.981165,0.12559222,0.4506848626118955,0.0,0.13571222117701856,0.0073207754998968165
821572a8-af7e-40f4-b67b-c360eee2f132,5,1767701551803,3.4090502,-6.7039504,-5.8290005,-0.0229625,0.1076625,0.02255,0.0256552696228027,-0.1297172307968139,-0.2955728149414067,15.4210883,73.981165,0.12559222,0.323802473365167,0.0,0.11236989282054156,-0.0017937793176632509
821572a8-af7e-40f4-b67b-c360eee2f132,5,1767701551814,3.4090502,-6.7039504,-5.8290005,-0.0229625,0.1076625,0.02255,0.0256552696228027,-0.1297172307968139,-0.2955728149414067,15.4210883,73.981165,0.12559222,0.323802473365167,0.0,0.11236989282054156,0.012827397419404741
821572a8-af7e-40f4-b67b-c360eee2f132,5,1767701551825,3.4669502,-6.7990503,-5.7520504,-0.0248875,0.051425,0.0292875,-0.0839247703552246,-0.076659083366394,-0.2538486099243169,15.4210883,73.981165,0.12559222,0.278135037171265,0.0,0.06420027988646156,-0.021504950642898455
821572a8-af7e-40f4-b67b-c360eee2f132,5,1767701551836,3.4669502,-6.7990503,-5.7520504,-0.0248875,0.051425,0.0292875,-0.0839247703552246,-0.076659083366394,-0.2538486099243169,15.4210883,73.981165,0.12559222,0.278135037171265,0.0,0.06420027988646156,-0.0095922985928019
821572a8-af7e-40f4-b67b-c360eee2f132,5,1767701551846,3.4480503,-6.9139504,-5.7709503,-0.0158125,-0.024475,0.0372625,-0.1496672630310058,-0.1212477684020996,-0.1684985733032231,15.4210883,73.981165,0.12559222,0.2559161584794972,0.0,0.04730279788236632,-0.01749914489940657
821572a8-af7e-40f4-b67b-c360eee2f132,5,1767701551857,3.4480503,-6.9139504,-5.7709503,-0.0158125,-0.024475,0.0372625,-0.1496672630310058,-0.1212477684020996,-0.1684985733032231,15.4210883,73.981165,0.12559222,0.2559161584794972,0.0,0.04730279788236632,-0.012194414974730719
821572a8-af7e-40f4-b67b-c360eee2f132,6,1767701551868,3.4480503,-6.9139504,-5.7709503,-0.0158125,-0.024475,0.0372625,-0.1496672630310058,-0.1212477684020996,-0.1684985733032231,15.4210833,73.9811483,0.096767776,0.2559161584794972,0.0,0.04730279788236632,-0.011041445175354435
821572a8-af7e-40f4-b67b-c360eee2f132,6,1767701551878,3.39,-7.00995,-5.7910504,-0.0103124995,-0.0484,0.0451,-0.2033429145812988,-0.18267822265625,-0.1098409271240239,15.4210833,73.9811483,0.096767776,0.2945924357731015,0.0,0.06695459391212451,0.0054772051744649735
821572a8-af7e-40f4-b67b-c360eee2f132,6,1767701551889,3.39,-7.00995,-5.7910504,-0.0103124995,-0.0484,0.0451,-0.2033429145812988,-0.18267822265625,-0.1098409271240239,15.4210833,73.9811483,0.096767776,0.2945924357731015,0.0,0.06695459391212451,-0.0017435583896423966
821572a8-af7e-40f4-b67b-c360eee2f132,6,1767701551900,3.35205,-6.9330006,-5.7520504,-0.002475,-0.076725,0.0631125,-0.1762733459472656,-0.1692050695419311,-0.2011952972412114,15.4210833,73.9811483,0.096767776,0.3165157115880878,0.0,0.09937826173892357,0.019875247953129303
821572a8-af7e-40f4-b67b-c360eee2f132,6,1767701551911,3.35205,-6.9330006,-5.7520504,-0.002475,-0.076725,0.0631125,-0.1762733459472656,-0.1692050695419311,-0.2011952972412114,15.4210833,73.9811483,0.096767776,0.3165157115880878,0.0,0.09937826173892357,0.006243734049661799
821572a8-af7e-40f4-b67b-c360eee2f132,6,1767701551921,3.4090502,-6.8950505,-5.676,0.01485,-0.094325,0.0834625,-0.1888594627380371,-0.0588115453720092,-0.25273853302002,15.4210833,73.9811483,0.096767776,0.3209415220999858,0.0,0.12682159528743517,0.01817344163106768
821572a8-af7e-40f4-b67b-c360eee2f132,6,1767701551932,3.4090502,-6.8950505,-5.676,0.01485,-0.094325,0.0834625,-0.1888594627380371,-0.0588115453720092,-0.25273853302002,15.4210833,73.9811483,0.096767776,0.3209415220999858,0.0,0.12682159528743517,0.0018344895821971274
821572a8-af7e-40f4-b67b-c360eee2f132,6,1767701551943,3.4090502,-6.8950505,-5.676,0.01485,-0.094325,0.0834625,-0.1888594627380371,-0.0588115453720092,-0.25273853302002,15.4210833,73.9811483,0.096767776,0.3209415220999858,0.0,0.12682159528743517,-0.014236877158417253
821572a8-af7e-40f4-b67b-c360eee2f132,6,1767701551953,3.4290001,-6.8950505,-5.7330003,0.0270875,-0.1199,0.095837496,-0.13493013381958,-0.0314629077911376,-0.2106309509277348,15.4210833,73.9811483,0.096767776,0.2521139684110448,0.0,0.15586714950816294,6.168697422917253e-05
821572a8-af7e-40f4-b67b-c360eee2f132,6,1767701551964,3.4290001,-6.8950505,-5.7330003,0.0270875,-0.1199,0.095837496,-0.13493013381958,-0.0314629077911376,-0.2106309509277348,15.4210833,73.9811483,0.096767776,0.2521139684110448,0.0,0.15586714950816294,-0.012405138764789225
821572a8-af7e-40f4-b67b-c360eee2f132,6,1767701551974,3.3709502,-6.8380504,-5.7910504,0.031075,-0.147125,0.10175,-0.0513486862182617,-0.0603038072586059,-0.2364822006225591,15.4210833,73.9811483,0.096767776,0.2493933999878763,0.0,0.18156123966860327,0.003901757807046322
821572a8-af7e-40f4-b67b-c360eee2f132,6,1767701551985,3.3709502,-6.8380504,-5.7910504,0.031075,-0.147125,0.10175,-0.0513486862182617,-0.0603038072586059,-0.2364822006225591,15.4210833,73.9811483,0.096767776,0.2493933999878763,0.0,0.18156123966860327,-0.001806950032114866
821572a8-af7e-40f4-b67b-c360eee2f132,6,1767701551995,3.5050502,-6.7230005,-5.8290005,0.0369875,-0.1665125,0.0906125,0.080540657043457,0.1071586608886718,-0.2473970031738286,15.4210833,73.9811483,0.096767776,0.2813806198369683,0.0,0.19314531567902443,0.008112986973812932
821572a8-af7e-40f4-b67b-c360eee2f132,6,1767701552006,3.5050502,-6.7230005,-5.8290005,0.0369875,-0.1665125,0.0906125,0.080540657043457,0.1071586608886718,-0.2473970031738286,15.4210833,73.9811483,0.096767776,0.2813806198369683,0.0,0.19314531567902443,0.010607646989180482
821572a8-af7e-40f4-b67b-c360eee2f132,6,1767701552017,3.5629501,-6.6840005,-5.7910504,0.032175,-0.148775,0.056375,0.0930314064025878,0.2156749963760376,-0.2783895111083989,15.4210833,73.9811483,0.096767776,0.3642406711697922,0.0,0.16231873544049066,-0.013708413939636776
821572a8-af7e-40f4-b67b-c360eee2f132,6,1767701552027,3.5629501,-6.6840005,-5.7910504,0.032175,-0.148775,0.056375,0.0930314064025878,0.2156749963760376,-0.2783895111083989,15.4210833,73.9811483,0.096767776,0.3642406711697922,0.0,0.16231873544049066,-0.0035733961612348067
821572a8-af7e-40f4-b67b-c360eee2f132,6,1767701552038,3.6769502,-6.78,-5.84805,0.03355,-0.12925,0.0394625,0.0859870910644531,0.3085917234420776,-0.1360421752929692,15.4210833,73.9811483,0.096767776,0.3480375052564324,0.0,0.1392424285419139,-0.01350732430911869
821572a8-af7e-40f4-b67b-c360eee2f132,6,1767701552049,3.6769502,-6.78,-5.84805,0.03355,-0.12925,0.0394625,0.0859870910644531,0.3085917234420776,-0.1360421752929692,15.4210833,73.9811483,0.096767776,0.3480375052564324,0.0,0.1392424285419139,0.001835438842155468
821572a8-af7e-40f4-b67b-c360eee2f132,6,1767701552060,3.6769502,-6.78,-5.84805,0.03355,-0.12925,0.0394625,0.0859870910644531,0.3085917234420776,-0.1360421752929692,15.4210833,73.9811483,0.096767776,0.3480375052564324,0.0,0.1392424285419139,0.018430026450098554
821572a8-af7e-40f4-b67b-c360eee2f132,6,1767701552070,3.6390002,-6.78,-5.7709503,0.0317625,-0.1040875,0.0306625,0.0285620689392089,0.316550612449646,-0.1968017196655278,15.4210833,73.9811483,0.096767776,0.3738328488611496,0.0,0.11306304864432942,0.009066047736910872
821572a8-af7e-40f4-b67b-c360eee2f132,6,1767701552081,3.6390002,-6.78,-5.7709503,0.0317625,-0.1040875,0.0306625,0.0285620689392089,0.316550612449646,-0.1968017196655278,15.4210833,73.9811483,0.096767776,0.3738328488611496,0.0,0.11306304864432942,0.02505656427515969
821572a8-af7e-40f4-b67b-c360eee2f132,6,1767701552092,3.8880002,-6.7230005,-5.886,0.0240625,-0.0567875,-0.0048125,0.181769847869873,0.5243573188781738,-0.0810590362548833,15.4210833,73.9811483,0.096767776,0.5608577741409262,0.0,0.06186262376225243,-0.011965734737707496
821572a8-af7e-40f4-b67b-c360eee2f132,6,1767701552102,3.8880002,-6.7230005,-5.886,0.0240625,-0.0567875,-0.0048125,0.181769847869873,0.5243573188781738,-0.0810590362548833,15.4210833,73.9811483,0.096767776,0.5608577741409262,0.0,0.06186262376225243,-0.0004563984101160567
821572a8-af7e-40f4-b67b-c360eee2f132,6,1767701552113,3.7159503,-6.7230005,-5.637,0.0119624995,-0.0171875,-0.0262625,-0.0205888748168945,0.4413710832595825,-0.2922483062744145,15.4210833,73.9811483,0.096767776,0.5297559885685362,0.0,0.033589141947770865,-0.020548139797973236
821572a8-af7e-40f4-b67b-c360eee2f132,6,1767701552124,3.7159503,-6.7230005,-5.637,0.0119624995,-0.0171875,-0.0262625,-0.0205888748168945,0.4413710832595825,-0.2922483062744145,15.4210833,73.9811483,0.096767776,0.5297559885685362,0.0,0.033589141947770865,-0.016102228389804293
821572a8-af7e-40f4-b67b-c360eee2f132,6,1767701552134,3.69705,-6.76095,-5.7910504,-0.01375,0.0328625,-0.03575,0.0605978965759277,0.3537665605545044,-0.1774449920654301,15.4210833,73.9811483,0.096767776,0.4003868250143744,0.0,0.05046849419439815,0.0013625406800588072
821572a8-af7e-40f4-b67b-c360eee2f132,6,1767701552145,3.69705,-6.76095,-5.7910504,-0.01375,0.0328625,-0.03575,0.0605978965759277,0.3537665605545044,-0.1774449920654301,15.4210833,73.9811483,0.096767776,0.4003868250143744,0.0,0.05046849419439815,-0.0017452553557405566
821572a8-af7e-40f4-b67b-c360eee2f132,6,1767701552156,3.69705,-6.76095,-5.7910504,-0.01375,0.0328625,-0.03575,0.0605978965759277,0.3537665605545044,-0.1774449920654301,15.4210833,73.9811483,0.096767776,0.4003868250143744,0.0,0.05046849419439815,-0.008105118457524315
821572a8-af7e-40f4-b67b-c360eee2f132,6,1767701552166,3.8119502,-6.8569503,-5.7910504,-0.02915,0.0444125,-0.055,0.0043187141418457,0.4179075956344604,-0.067806777954102,15.4210833,73.9811483,0.096767776,0.4233948144667475,0.0,0.0764669383214079,0.008953152450887427
821572a8-af7e-40f4-b67b-c360eee2f132,6,1767701552177,3.8119502,-6.8569503,-5.7910504,-0.02915,0.0444125,-0.055,0.0043187141418457,0.4179075956344604,-0.067806777954102,15.4210833,73.9811483,0.096767776,0.4233948144667475,0.0,0.0764669383214079,-0.0017291568071472268
821572a8-af7e-40f4-b67b-c360eee2f132,6,1767701552187,3.8500502,-6.9330006,-5.7709503,-0.0342375,0.0581625,-0.066825,-0.0628018379211425,0.408405065536499,-0.010891494750977,15.4210833,73.9811483,0.096767776,0.4133489966844677,0.0,0.094977173244417,0.005282627298724629
821572a8-af7e-40f4-b67b-c360eee2f132,6,1767701552198,3.8500502,-6.9330006,-5.7709503,-0.0342375,0.0581625,-0.066825,-0.0628018379211425,0.408405065536499,-0.010891494750977,15.4210833,73.9811483,0.096767776,0.4133489966844677,0.0,0.094977173244417,-0.00610316197679614
821572a8-af7e-40f4-b67b-c360eee2f132,6,1767701552209,3.69705,-6.8569503,-5.59905,-0.037675,0.096525,-0.0658625,-0.1598954200744629,0.3081631660461426,-0.2227807617187505,15.4210833,73.9811483,0.096767776,0.412507393946288,0.0,0.12277764518123811,0.01127285940389896
821572a8-af7e-40f4-b67b-c360eee2f132,6,1767701552219,3.69705,-6.8569503,-5.59905,-0.037675,0.096525,-0.0658625,-0.1598954200744629,0.3081631660461426,-0.2227807617187505,15.4210833,73.9811483,0.096767776,0.412507393946288,0.0,0.12277764518123811,0.0025055153350467185
821572a8-af7e-40f4-b67b-c360eee2f132,6,1767701552230,3.6010501,-6.9330006,-5.637,-0.0416625,0.1194875,-0.057475,-0.1996307373046875,0.1633896827697754,-0.1796670532226567,15.4210833,73.9811483,0.096767776,0.3143705929729019,0.0,0.13898346012205912,0.012088134551523645
821572a8-af7e-40f4-b67b-c360eee2f132,6,1767701552241,3.6010501,-6.9330006,-5.637,-0.0416625,0.1194875,-0.057475,-0.1996307373046875,0.1633896827697754,-0.1796670532226567,15.4210833,73.9811483,0.096767776,0.3143705929729019,0.0,0.13898346012205912,0.007853398210218378
821572a8-af7e-40f4-b67b-c360eee2f132,6,1767701552252,3.6010501,-6.9330006,-5.637,-0.0416625,0.1194875,-0.057475,-0.1996307373046875,0.1633896827697754,-0.1796670532226567,15.4210833,73.9811483,0.096767776,0.3143705929729019,0.0,0.13898346012205912,0.005998858178725402
821572a8-af7e-40f4-b67b-c360eee2f132,6,1767701552262,3.486,-7.0290003,-5.6950502,-0.028875,0.11495,-0.0350625,-0.2375149726867675,-0.0085206031799316,-0.1179338073730473,15.4210833,73.9811483,0.096767776,0.2653193280755265,0.0,0.12359873393870181,-0.009107106319834342
821572a8-af7e-40f4-b67b-c360eee2f132,6,1767701552273,3.486,-7.0290003,-5.6950502,-0.028875,0.11495,-0.0350625,-0.2375149726867675,-0.0085206031799316,-0.1179338073730473,15.4210833,73.9811483,0.096767776,0.2653193280755265,0.0,0.12359873393870181,-0.007145780893001323
821572a8-af7e-40f4-b67b-c360eee2f132,6,1767701552284,3.39,-6.95205,-5.5420504,-0.0075625,0.11605,-0.0020625,-0.3027169704437256,-0.0510212182998657,-0.2998376464843755,15.4210833,73.9811483,0.096767776,0.4291192644949878,0.0,0.1163144350994321,-0.011390062296231932
821572a8-af7e-40f4-b67b-c360eee2f132,6,1767701552295,3.39,-6.95205,-5.5420504,-0.0075625,0.11605,-0.0020625,-0.3027169704437256,-0.0510212182998657,-0.2998376464843755,15.4210833,73.9811483,0.096767776,0.4291192644949878,0.0,0.1163144350994321,-0.007967735545128763
821572a8-af7e-40f4-b67b-c360eee2f132,6,1767701552305,3.2950501,-7.00995,-5.484,0.0193875,0.117837496,0.0264,-0.385589599609375,-0.1436898708343505,-0.3283477401733403,15.4210833,73.9811483,0.096767776,0.5264393191852693,0.0,0.12230499016720461,0.001102998626497305
821572a8-af7e-40f4-b67b-c360eee2f132,6,1767701552316,3.2950501,-7.00995,-5.484,0.0193875,0.117837496,0.0264,-0.385589599609375,-0.1436898708343505,-0.3283477401733403,15.4210833,73.9811483,0.096767776,0.5264393191852693,0.0,0.12230499016720461,0.003151378626687997
821572a8-af7e-40f4-b67b-c360eee2f132,6,1767701552327,3.3330002,-7.1629505,-5.5800004,0.0493625,0.095699996,0.061875,-0.3911623954772949,-0.1793181896209716,-0.1472879028320317,15.4210833,73.9811483,0.096767776,0.4548150822973403,0.0,0.12419203382524184,0.0054572884854899245
821572a8-af7e-40f4-b67b-c360eee2f132,6,1767701552338,3.3330002,-7.1629505,-5.5800004,0.0493625,0.095699996,0.061875,-0.3911623954772949,-0.1793181896209716,-0.1472879028320317,15.4210833,73.9811483,0.096767776,0.4548150822973403,0.0,0.12419203382524184,0.0037892728783015047
821572a8-af7e-40f4-b67b-c360eee2f132,6,1767701552349,3.3330002,-7.1629505,-5.5800004,0.0493625,0.095699996,0.061875,-0.3911623954772949,-0.1793181896209716,-0.1472879028320317,15.4210833,73.9811483,0.096767776,0.4548150822973403,0.0,0.12419203382524184,-0.0002449719975444034
821572a8-af7e-40f4-b67b-c360eee2f132,6,1767701552359,3.2749503,-7.0669503,-5.5609503,0.067375,0.0631125,0.1043625,-0.3174057006835937,-0.2095909118652343,-0.2472272491455083,15.4210833,73.9811483,0.096767776,0.4536474863624825,0.0,0.13933452439183908,0.008421231004519006
821572a8-af7e-40f4-b67b-c360eee2f132,6,1767701552370,3.2749503,-7.0669503,-5.5609503,0.067375,0.0631125,0.1043625,-0.3174057006835937,-0.2095909118652343,-0.2472272491455083,15.4210833,73.9811483,0.096767776,0.4536474863624825,0.0,0.13933452439183908,-0.0003571536170913014
821572a8-af7e-40f4-b67b-c360eee2f132,6,1767701552381,3.2749503,-7.0669503,-5.5609503,0.067375,0.0631125,0.1043625,-0.3174057006835937,-0.2095909118652343,-0.2472272491455083,15.4210833,73.9811483,0.096767776,0.4536474863624825,0.0,0.13933452439183908,-0.011083940290656537
821572a8-af7e-40f4-b67b-c360eee2f132,6,1767701552392,3.2749503,-7.0669503,-5.5800004,0.0765875,0.031625,0.1337875,-0.2702164649963379,-0.2053297758102417,-0.2345986938476567,15.4210833,73.9811483,0.096767776,0.412569754034912,0.0,0.15736861484266804,-0.005174508821059564
821572a8-af7e-40f4-b67b-c360eee2f132,6,1767701552402,3.25605,-7.1250005,-5.59905,0.0836,0.0103124995,0.1617,-0.2622098922729492,-0.2186110019683838,-0.1870942687988286,15.4210833,73.9811483,0.096767776,0.3892930299976878,0.0,0.1823244296465438,0.006974192584754753
821572a8-af7e-40f4-b67b-c360eee2f132,6,1767701552413,3.25605,-7.1250005,-5.59905,0.0836,0.0103124995,0.1617,-0.2622098922729492,-0.2186110019683838,-0.1870942687988286,15.4210833,73.9811483,0.096767776,0.3892930299976878,0.0,0.1823244296465438,-0.005681285687586724
821572a8-af7e-40f4-b67b-c360eee2f132,6,1767701552424,3.2950501,-7.1250005,-5.65605,0.0862125,0.0037125,0.18053749,-0.1758489608764648,-0.1738550662994384,-0.1377330398559575,15.4210833,73.9811483,0.096767776,0.2830527007242245,0.0,0.20010038257834517,0.0004850438775195942
821572a8-af7e-40f4-b67b-c360eee2f132,6,1767701552435,3.2950501,-7.1250005,-5.65605,0.0862125,0.0037125,0.18053749,-0.1758489608764648,-0.1738550662994384,-0.1377330398559575,15.4210833,73.9811483,0.096767776,0.2830527007242245,0.0,0.20010038257834517,-0.009191968116249248
821572a8-af7e-40f4-b67b-c360eee2f132,6,1767701552445,3.2950501,-7.1250005,-5.65605,0.0862125,0.0037125,0.18053749,-0.1758489608764648,-0.1738550662994384,-0.1377330398559575,15.4210833,73.9811483,0.096767776,0.2830527007242245,0.0,0.20010038257834517,-0.016129141555137054
821572a8-af7e-40f4-b67b-c360eee2f132,6,1767701552456,3.3709502,-7.00995,-5.6179504,0.0721875,0.007975,0.2182125,-0.0772304534912109,-0.0419123172760009,-0.2154012298583989,15.4210833,73.9811483,0.096767776,0.232634638672776,0.0,0.2299811534397982,0.010211173514655147
821572a8-af7e-40f4-b67b-c360eee2f132,6,1767701552466,3.3709502,-7.00995,-5.6179504,0.0721875,0.007975,0.2182125,-0.0772304534912109,-0.0419123172760009,-0.2154012298583989,15.4210833,73.9811483,0.096767776,0.232634638672776,0.0,0.2299811534397982,0.010510915105960479
821572a8-af7e-40f4-b67b-c360eee2f132,6,1767701552477,3.4480503,-6.9330006,-5.59905,0.0666875,-0.0031625,0.213125,0.0066995620727539,0.0799744129180908,-0.2549758529663091,15.4210833,73.9811483,0.096767776,0.2673078308794129,0.0,0.22333716593415437,0.008188398268624431
821572a8-af7e-40f4-b67b-c360eee2f132,6,1767701552488,3.4480503,-6.9330006,-5.59905,0.0666875,-0.0031625,0.213125,0.0066995620727539,0.0799744129180908,-0.2549758529663091,15.4210833,73.9811483,0.096767776,0.2673078308794129,0.0,0.22333716593415437,0.01642322890545379
821572a8-af7e-40f4-b67b-c360eee2f132,6,1767701552499,3.5820003,-6.9139504,-5.65605,0.0518375,-0.005775,0.1824625,0.1114912033081054,0.2145054340362548,-0.1888824081420903,15.4210833,73.9811483,0.096767776,0.3067889074782962,0.0,0.18977102238619048,-0.005395895567336433
821572a8-af7e-40f4-b67b-c360eee2f132,6,1767701552509,3.5820003,-6.9139504,-5.65605,0.0518375,-0.005775,0.1824625,0.1114912033081054,0.2145054340362548,-0.1888824081420903,15.4210833,73.9811483,0.096767776,0.3067889074782962,0.0,0.18977102238619048,0.009193431925298456
821572a8-af7e-40f4-b67b-c360eee2f132,6,1767701552520,3.7159503,-6.8950505,-5.71395,0.0422125,0.00055,0.1475375,0.2076992988586425,0.3401226997375488,-0.1228719329833989,15.4210833,73.9811483,0.096767776,0.4170371224941581,0.0,0.1534585011086059,-0.010576010491448655
821572a8-af7e-40f4-b67b-c360eee2f132,6,1767701552531,3.7159503,-6.8950505,-5.71395,0.0422125,0.00055,0.1475375,0.2076992988586425,0.3401226997375488,-0.1228719329833989,15.4210833,73.9811483,0.096767776,0.4170371224941581,0.0,0.1534585011086059,0.006885499979300542
821572a8-af7e-40f4-b67b-c360eee2f132,6,1767701552541,3.7729502,-6.8380504,-5.65605,0.0290125,0.0078375,0.1170125,0.2255067825317382,0.432476282119751,-0.1794686889648442,15.4210833,73.9811483,0.096767776,0.519709586098524,0.0,0.12081008533541394,-0.008477860259461073
821572a8-af7e-40f4-b67b-c360eee2f132,6,1767701552553,3.7729502,-6.8380504,-5.65605,0.0290125,0.0078375,0.1170125,0.2255067825317382,0.432476282119751,-0.1794686889648442,15.4210833,73.9811483,0.096767776,0.519709586098524,0.0,0.12081008533541394,0.007570355487929873
821572a8-af7e-40f4-b67b-c360eee2f132,6,1767701552563,3.7729502,-6.8380504,-5.65605,0.0290125,0.0078375,0.1170125,0.2255067825317382,0.432476282119751,-0.1794686889648442,15.4210833,73.9811483,0.096767776,0.519709586098524,0.0,0.12081008533541394,0.02144743632157432
821572a8-af7e-40f4-b67b-c360eee2f132,6,1767701552574,3.7540503,-6.7990503,-5.637,0.0081124995,0.0341,0.0529375,0.2424530982971191,0.4329047203063965,-0.226183471679688,15.4210833,73.9811483,0.096767776,0.5452971342291357,0.0,0.0634901689585679,-0.024895039103366694
821572a8-af7e-40f4-b67b-c360eee2f132,6,1767701552585,3.7540503,-6.7990503,-5.637,0.0081124995,0.0341,0.0529375,0.2424530982971191,0.4329047203063965,-0.226183471679688,15.4210833,73.9811483,0.096767776,0.5452971342291357,0.0,0.0634901689585679,-0.01728068754151233
821572a8-af7e-40f4-b67b-c360eee2f132,6,1767701552596,3.6769502,-6.8569503,-5.65605,-0.007975,0.050875,-0.0149875,0.2043170928955078,0.3400249481201172,-0.199001846313477,15.4210833,73.9811483,0.096767776,0.443806460779395,0.0,0.05363293210565687,-0.023052919676354013
821572a8-af7e-40f4-b67b-c360eee2f132,6,1767701552607,3.6769502,-6.8569503,-5.65605,-0.007975,0.050875,-0.0149875,0.2043170928955078,0.3400249481201172,-0.199001846313477,15.4210833,73.9811483,0.096767776,0.443806460779395,0.0,0.05363293210565687,-0.022365097531269987
821572a8-af7e-40f4-b67b-c360eee2f132,6,1767701552617,3.6390002,-6.95205,-5.65605,-0.039875,0.0631125,-0.0561,0.1279008388519287,0.2714250087738037,-0.1417937850952153,15.4210833,73.9811483,0.096767776,0.3318668972020478,0.0,0.09338315309117592,0.015076719882527317
821572a8-af7e-40f4-b67b-c360eee2f132,6,1767701552628,3.6390002,-6.95205,-5.65605,-0.039875,0.0631125,-0.0561,0.1279008388519287,0.2714250087738037,-0.1417937850952153,15.4210833,73.9811483,0.096767776,0.3318668972020478,0.0,0.09338315309117592,0.01038559993712498
821572a8-af7e-40f4-b67b-c360eee2f132,6,1767701552639,3.5820003,-6.972,-5.6179504,-0.0473,0.061049998,-0.0759,0.063509464263916,0.2048962116241455,-0.168688354492188,15.4210833,73.9811483,0.096767776,0.2728949807715384,0.0,0.10828297306502072,0.018962755856131747
821572a8-af7e-40f4-b67b-c360eee2f132,6,1767701552650,3.5820003,-6.972,-5.6179504,-0.0473,0.061049998,-0.0759,0.063509464263916,0.2048962116241455,-0.168688354492188,15.4210833,73.9811483,0.096767776,0.2728949807715384,0.0,0.10828297306502072,0.01181416432661589
821572a8-af7e-40f4-b67b-c360eee2f132,6,1767701552661,3.5820003,-6.972,-5.6179504,-0.0473,0.061049998,-0.0759,0.063509464263916,0.2048962116241455,-0.168688354492188,15.4210833,73.9811483,0.096767776,0.2728949807715384,0.0,0.10828297306502072,0.004618969282715611
821572a8-af7e-40f4-b67b-c360eee2f132,6,1767701552671,3.5050502,-6.972,-5.5609503,-0.0466125,0.054449998,-0.0922625,-0.0058012008666992,0.1326451301574707,-0.2287316894531255,15.4210833,73.9811483,0.096767776,0.2644741390874903,0.0,0.1168327708509047,0.006611199516692554
821572a8-af7e-40f4-b67b-c360eee2f132,6,1767701552682,3.5050502,-6.972,-5.5609503,-0.0466125,0.054449998,-0.0922625,-0.0058012008666992,0.1326451301574707,-0.2287316894531255,15.4210833,73.9811483,0.096767776,0.2644741390874903,0.0,0.1168327708509047,0.0012302698672459085
821572a8-af7e-40f4-b67b-c360eee2f132,6,1767701552693,3.4669502,-6.9330006,-5.59905,-0.039049998,0.04675,-0.1040875,0.0240521430969238,0.0653653144836425,-0.2480559921264653,15.4210833,73.9811483,0.096767776,0.2576488019668351,0.0,0.12060129559855484,0.0011601830129515304
821572a8-af7e-40f4-b67b-c360eee2f132,6,1767701552704,3.4669502,-6.9330006,-5.59905,-0.039049998,0.04675,-0.1040875,0.0240521430969238,0.0653653144836425,-0.2480559921264653,15.4210833,73.9811483,0.096767776,0.2576488019668351,0.0,0.12060129559855484,-0.0009499008458776799
821572a8-af7e-40f4-b67b-c360eee2f132,6,1767701552715,3.4669502,-6.9139504,-5.637,-0.029424999,0.0306625,-0.10725,0.0479650497436523,0.0309424400329589,-0.2394719696044926,15.4210833,73.9811483,0.096767776,0.2461806345315556,0.0,0.11536282751562568,-0.006550285984241928
821572a8-af7e-40f4-b67b-c360eee2f132,6,1767701552725,3.4669502,-6.9139504,-5.637,-0.029424999,0.0306625,-0.10725,0.0479650497436523,0.0309424400329589,-0.2394719696044926,15.4210833,73.9811483,0.096767776,0.2461806345315556,0.0,0.11536282751562568,-0.005283986842402667
821572a8-af7e-40f4-b67b-c360eee2f132,6,1767701552736,3.52395,-6.8950505,-5.6179504,-0.009075,-0.0031625,-0.106425,0.0411701202392578,0.0700736045837402,-0.2436671829223637,15.4210833,73.9811483,0.096767776,0.2568637477208374,0.0,0.10685802569882152,-0.011118712216192674
821572a8-af7e-40f4-b67b-c360eee2f132,6,1767701552747,3.52395,-6.8950505,-5.6179504,-0.009075,-0.0031625,-0.106425,0.0411701202392578,0.0700736045837402,-0.2436671829223637,15.4210833,73.9811483,0.096767776,0.2568637477208374,0.0,0.10685802569882152,-0.007336476919107939
821572a8-af7e-40f4-b67b-c360eee2f132,6,1767701552758,3.5430002,-6.95205,-5.637,0.0045375,-0.0240625,-0.103675,0.0087356567382812,0.0537123680114746,-0.1841664886474614,15.4210833,73.9811483,0.096767776,0.1920380840270614,0.0,0.1065274539144722,-0.003096884844929171
821572a8-af7e-40f4-b67b-c360eee2f132,6,1767701552768,3.5430002,-6.95205,-5.637,0.0045375,-0.0240625,-0.103675,0.0087356567382812,0.0537123680114746,-0.1841664886474614,15.4210833,73.9811483,0.096767776,0.1920380840270614,0.0,0.1065274539144722,0.0019328453235852013
821572a8-af7e-40f4-b67b-c360eee2f132,6,1767701552779,3.5430002,-6.95205,-5.637,0.0045375,-0.0240625,-0.103675,0.0087356567382812,0.0537123680114746,-0.1841664886474614,15.4210833,73.9811483,0.096767776,0.1920380840270614,0.0,0.1065274539144722,0.007110543605749456
821572a8-af7e-40f4-b67b-c360eee2f132,6,1767701552790,3.61995,-7.0290003,-5.71395,0.015125,-0.031625,-0.0919875,0.0161418914794921,0.0680899620056152,-0.0552459335327153,15.4210833,73.9811483,0.096767776,0.0891566977762357,0.0,0.09844087771982735,0.004068302277470965
821572a8-af7e-40f4-b67b-c360eee2f132,6,1767701552801,3.61995,-7.0290003,-5.71395,0.015125,-0.031625,-0.0919875,0.0161418914794921,0.0680899620056152,-0.0552459335327153,15.4210833,73.9811483,0.096767776,0.0891566977762357,0.0,0.09844087771982735,0.008735700979514793
821572a8-af7e-40f4-b67b-c360eee2f132,6,1767701552812,3.6010501,-6.9910502,-5.7330003,0.0210375,-0.0523875,-0.0622875,0.0435566902160644,0.0372986793518066,-0.0782800292968755,15.4210833,73.9811483,0.096767776,0.0970367957564901,0.0,0.08406401857364422,-0.0015531018834144751
821572a8-af7e-40f4-b67b-c360eee2f132,6,1767701552823,3.6010501,-6.9910502,-5.7330003,0.0210375,-0.0523875,-0.0622875,0.0435566902160644,0.0372986793518066,-0.0782800292968755,15.4210833,73.9811483,0.096767776,0.0970367957564901,0.0,0.08406401857364422,0.001795563909263122
821572a8-af7e-40f4-b67b-c360eee2f132,6,1767701552834,3.4090502,-6.74205,-5.5609503,0.027224999,-0.0576125,-0.034925,0.0511269569396972,-0.0371047258377075,-0.4293256378173833,15.4210833,73.9811483,0.096767776,0.433948418239666,0.0,0.07266468435079039,-0.007111793832711294
821572a8-af7e-40f4-b67b-c360eee2f132,6,1767701552844,3.4090502,-6.74205,-5.5609503,0.027224999,-0.0576125,-0.034925,0.0511269569396972,-0.0371047258377075,-0.4293256378173833,15.4210833,73.9811483,0.096767776,0.433948418239666,0.0,0.07266468435079039,-0.005550631966898934
821572a8-af7e-40f4-b67b-c360eee2f132,7,1767701552855,3.4090502,-6.74205,-5.5609503,0.027224999,-0.0576125,-0.034925,0.0511269569396972,-0.0371047258377075,-0.4293256378173833,15.4210817,73.98115,0.13073945,0.433948418239666,0.0,0.07266468435079039,-0.004950434216555127
821572a8-af7e-40f4-b67b-c360eee2f132,7,1767701552866,3.65805,-6.8179502,-5.637,0.0339625,-0.0798875,-0.018975,0.0929429531097412,0.1519367694854736,-0.2386975860595708,15.4210817,73.98115,0.13073945,0.2978249688073646,0.0,0.08885670873659457,0.01089587469634449
821572a8-af7e-40f4-b67b-c360eee2f132,7,1767701552877,3.5430002,-7.1250005,-5.7910504,0.030524999,-0.0776875,-0.021724999,-0.0224547386169433,-0.049222707748413,0.0313352966308588,15.4210817,73.98115,0.13073945,0.0625219246295637,0.0,0.08625021044467082,0.007059524799009308
821572a8-af7e-40f4-b67b-c360eee2f132,7,1767701552888,3.5430002,-7.1250005,-5.7910504,0.030524999,-0.0776875,-0.021724999,-0.0224547386169433,-0.049222707748413,0.0313352966308588,15.4210817,73.98115,0.13073945,0.0625219246295637,0.0,0.08625021044467082,0.0050555658386087846
821572a8-af7e-40f4-b67b-c360eee2f132,7,1767701552898,3.5430002,-7.1250005,-5.7910504,0.030524999,-0.0776875,-0.021724999,-0.0224547386169433,-0.049222707748413,0.0313352966308588,15.4210817,73.98115,0.13073945,0.0625219246295637,0.0,0.08625021044467082,0.0024366794311152314
821572a8-af7e-40f4-b67b-c360eee2f132,7,1767701552909,3.7540503,-6.6840005,-5.7330003,0.0286,-0.0726,-0.022824999,0.2577433586120605,0.2393240928649902,-0.2437892532348637,15.4210817,73.98115,0.13073945,0.4279496002183998,0.0,0.08130006506362711,-0.00553975697255179
821572a8-af7e-40f4-b67b-c360eee2f132,7,1767701552919,3.7540503,-6.6840005,-5.7330003,0.0286,-0.0726,-0.022824999,0.2577433586120605,0.2393240928649902,-0.2437892532348637,15.4210817,73.98115,0.13073945,0.4279496002183998,0.0,0.08130006506362711,-0.00872158867466139
821572a8-af7e-40f4-b67b-c360eee2f132,7,1767701552930,3.31395,-6.6649504,-5.6950502,0.0154,-0.07205,-0.045649998,0.1733520030975341,-0.1410111188888549,-0.4405007934570317,15.4210817,73.98115,0.13073945,0.4939392692067404,0.0,0.08667343778459467,-0.00639815176276986
821572a8-af7e-40f4-b67b-c360eee2f132,7,1767701552941,3.31395,-6.6649504,-5.6950502,0.0154,-0.07205,-0.045649998,0.1733520030975341,-0.1410111188888549,-0.4405007934570317,15.4210817,73.98115,0.13073945,0.4939392692067404,0.0,0.08667343778459467,-0.009007858752125739
821572a8-af7e-40f4-b67b-c360eee2f132,7,1767701552951,3.3330002,-6.8760004,-5.637,-0.0033,-0.0790625,-0.0592625,-0.0104498863220214,-0.1333822011947631,-0.3154683685302739,15.4210817,73.98115,0.13073945,0.3426664606623417,0.0,0.09886259561886891,0.0013202994239360113
821572a8-af7e-40f4-b67b-c360eee2f132,7,1767701552962,3.3330002,-6.8760004,-5.637,-0.0033,-0.0790625,-0.0592625,-0.0104498863220214,-0.1333822011947631,-0.3154683685302739,15.4210817,73.98115,0.13073945,0.3426664606623417,0.0,0.09886259561886891,0.0004909747423831407
821572a8-af7e-40f4-b67b-c360eee2f132,7,1767701552973,3.3330002,-6.8760004,-5.637,-0.0033,-0.0790625,-0.0592625,-0.0104498863220214,-0.1333822011947631,-0.3154683685302739,15.4210817,73.98115,0.13073945,0.3426664606623417,0.0,0.09886259561886891,0.0009227583028941083
821572a8-af7e-40f4-b67b-c360eee2f132,7,1767701552984,3.8880002,-7.0290003,-6.135,-0.009625,-0.0792,-0.0620125,0.3225836753845215,0.1646997928619384,0.2910112762451167,15.4210817,73.98115,0.13073945,0.4646222253564323,0.0,0.10104865551431153,0.004950801302287249
821572a8-af7e-40f4-b67b-c360eee2f132,7,1767701552995,3.8880002,-7.0290003,-6.135,-0.009625,-0.0792,-0.0620125,0.3225836753845215,0.1646997928619384,0.2910112762451167,15.4210817,73.98115,0.13073945,0.4646222253564323,0.0,0.10104865551431153,0.00825015996555482
821572a8-af7e-40f4-b67b-c360eee2f132,7,1767701553005,3.31395,-6.972,-5.71395,-0.023924999,-0.074525,-0.0518375,-0.0392961502075195,-0.1940314769744873,-0.2078586196899419,15.4210817,73.98115,0.13073945,0.2870498341010509,0.0,0.09388028338474486,0.005771144969054915
821572a8-af7e-40f4-b67b-c360eee2f132,7,1767701553016,3.31395,-6.972,-5.71395,-0.023924999,-0.074525,-0.0518375,-0.0392961502075195,-0.1940314769744873,-0.2078586196899419,15.4210817,73.98115,0.13073945,0.2870498341010509,0.0,0.09388028338474486,0.011667510485876824
821572a8-af7e-40f4-b67b-c360eee2f132,7,1767701553027,3.5430002,-6.6460505,-5.274,-0.034925,-0.058025,-0.0345125,-0.1206235885620117,0.2298994064331054,-0.6192164993286138,15.4210817,73.98115,0.13073945,0.6714408836499717,0.0,0.07601163665025244,0.0006151490918451334
821572a8-af7e-40f4-b67b-c360eee2f132,7,1767701553037,3.5430002,-6.6460505,-5.274,-0.034925,-0.058025,-0.0345125,-0.1206235885620117,0.2298994064331054,-0.6192164993286138,15.4210817,73.98115,0.13073945,0.6714408836499717,0.0,0.07601163665025244,0.007983302080049342
821572a8-af7e-40f4-b67b-c360eee2f132,7,1767701553048,3.04605,-6.8569503,-5.5219502,-0.0312125,-0.019524999,-0.0176,-0.1669402122497558,-0.3411521911621094,-0.5017285919189458,15.4210817,73.98115,0.13073945,0.6292737337198098,0.0,0.04080693252622649,-0.019718471250997065
821572a8-af7e-40f4-b67b-c360eee2f132,7,1767701553059,3.04605,-6.8569503,-5.5219502,-0.0312125,-0.019524999,-0.0176,-0.1669402122497558,-0.3411521911621094,-0.5017285919189458,15.4210817,73.98115,0.13073945,0.6292737337198098,0.0,0.04080693252622649,-0.012510387243622896
821572a8-af7e-40f4-b67b-c360eee2f132,7,1767701553069,3.2749503,-7.1059504,-5.7910504,-0.032175,-0.014025,-0.014162499,-0.1190199851989746,-0.2722158432006836,-0.0802598571777348,15.4210817,73.98115,0.13073945,0.3077480574112754,0.0,0.03784848250491691,-0.00896144104335913
821572a8-af7e-40f4-b67b-c360eee2f132,7,1767701553080,3.2749503,-7.1059504,-5.7910504,-0.032175,-0.014025,-0.014162499,-0.1190199851989746,-0.2722158432006836,-0.0802598571777348,15.4210817,73.98115,0.13073945,0.3077480574112754,0.0,0.03784848250491691,-0.00350497635193204
821572a8-af7e-40f4-b67b-c360eee2f132,7,1767701553091,3.2749503,-7.1059504,-5.7910504,-0.032175,-0.014025,-0.014162499,-0.1190199851989746,-0.2722158432006836,-0.0802598571777348,15.4210817,73.98115,0.13073945,0.3077480574112754,0.0,0.03784848250491691,0.0006301897433100584
821572a8-af7e-40f4-b67b-c360eee2f132,7,1767701553101,3.8880002,-6.7990503,-5.96295,-0.0187,-0.022824999,0.0325875,0.2863645553588867,0.2809882164001465,0.0256227874755854,15.4210817,73.98115,0.13073945,0.4020143822795988,0.0,0.043961525628667626,0.009382052170974226
821572a8-af7e-40f4-b67b-c360eee2f132,7,1767701553112,3.8880002,-6.7990503,-5.96295,-0.0187,-0.022824999,0.0325875,0.2863645553588867,0.2809882164001465,0.0256227874755854,15.4210817,73.98115,0.13073945,0.4020143822795988,0.0,0.043961525628667626,0.010451726851562884
821572a8-af7e-40f4-b67b-c360eee2f132,7,1767701553123,3.61995,-6.8179502,-5.44605,-0.0196625,-0.0202125,0.031075,-0.139505386352539,0.2203207015991211,-0.3664842224121099,15.4210817,73.98115,0.13073945,0.449792896399564,0.0,0.04196206247910129,0.007982079378997952
821572a8-af7e-40f4-b67b-c360eee2f132,7,1767701553133,3.61995,-6.8179502,-5.44605,-0.0196625,-0.0202125,0.031075,-0.139505386352539,0.2203207015991211,-0.3664842224121099,15.4210817,73.98115,0.13073945,0.449792896399564,0.0,0.04196206247910129,0.006097886181371211
821572a8-af7e-40f4-b67b-c360eee2f132,7,1767701553144,3.1600502,-6.8950505,-5.71395,-0.0138875,-0.0182875,0.0188375,-0.0646877288818359,-0.2970103025436401,-0.3187156295776372,15.4210817,73.98115,0.13073945,0.4404307830091173,0.0,0.029700954845762115,-0.009248472580904131
821572a8-af7e-40f4-b67b-c360eee2f132,7,1767701553155,3.1600502,-6.8950505,-5.71395,-0.0138875,-0.0182875,0.0188375,-0.0646877288818359,-0.2970103025436401,-0.3187156295776372,15.4210817,73.98115,0.13073945,0.4404307830091173,0.0,0.029700954845762115,-0.013247433888359875
821572a8-af7e-40f4-b67b-c360eee2f132,7,1767701553165,4.0219502,-6.8760004,-5.5420504,-0.01485,-0.0182875,0.0485375,-0.0533733367919921,0.554356575012207,-0.1218801116943364,15.4210817,73.98115,0.13073945,0.5701005937255285,0.0,0.053952238716294246,0.006437017681101693
821572a8-af7e-40f4-b67b-c360eee2f132,7,1767701553176,4.0219502,-6.8760004,-5.5420504,-0.01485,-0.0182875,0.0485375,-0.0533733367919921,0.554356575012207,-0.1218801116943364,15.4210817,73.98115,0.13073945,0.5701005937255285,0.0,0.053952238716294246,0.0016872653291472458
821572a8-af7e-40f4-b67b-c360eee2f132,7,1767701553187,4.0219502,-6.8760004,-5.5420504,-0.01485,-0.0182875,0.0485375,-0.0533733367919921,0.554356575012207,-0.1218801116943364,15.4210817,73.98115,0.13073945,0.5701005937255285,0.0,0.053952238716294246,-0.002844323315847054
821572a8-af7e-40f4-b67b-c360eee2f132,7,1767701553197,3.61995,-7.00995,-5.886,-0.014162499,0.0023375,0.0529375,0.0451083183288574,0.0536489486694335,0.0329450988769526,15.4210817,73.98115,0.13073945,0.077449013007302,0.0,0.05484905824556153,-0.005869902981304634
821572a8-af7e-40f4-b67b-c360eee2f132,7,1767701553208,3.61995,-7.00995,-5.886,-0.014162499,0.0023375,0.0529375,0.0451083183288574,0.0536489486694335,0.0329450988769526,15.4210817,73.98115,0.13073945,0.077449013007302,0.0,0.05484905824556153,-0.008830456944668878
821572a8-af7e-40f4-b67b-c360eee2f132,7,1767701553219,3.6769502,-6.9139504,-5.65605,-0.0119624995,0.0281875,0.0627,-0.0434904098510742,0.2127048969268798,-0.152544555664063,15.4210817,73.98115,0.13073945,0.2653387088014777,0.0,0.06977769378918668,0.004385164878145636
821572a8-af7e-40f4-b67b-c360eee2f132,7,1767701553229,3.6769502,-6.9139504,-5.65605,-0.0119624995,0.0281875,0.0627,-0.0434904098510742,0.2127048969268798,-0.152544555664063,15.4210817,73.98115,0.13073945,0.2653387088014777,0.0,0.06977769378918668,0.004112082262184444
821572a8-af7e-40f4-b67b-c360eee2f132,7,1767701553240,3.1990502,-6.8179502,-5.5420504,-0.0048125,0.04455,0.049225,-0.1269550323486328,-0.1707652807235717,-0.4618764495849614,15.4210817,73.98115,0.13073945,0.5085353635888581,0.0,0.06656548115389838,0.0021447034324396583
821572a8-af7e-40f4-b67b-c360eee2f132,7,1767701553251,3.1990502,-6.8179502,-5.5420504,-0.0048125,0.04455,0.049225,-0.1269550323486328,-0.1707652807235717,-0.4618764495849614,15.4210817,73.98115,0.13073945,0.5085353635888581,0.0,0.06656548115389838,0.004858239665604774
821572a8-af7e-40f4-b67b-c360eee2f132,7,1767701553261,2.96895,-6.95205,-5.71395,0.0059125,0.047025,0.0350625,-0.1202821731567382,-0.4637658596038818,-0.3461032485961919,15.4210817,73.98115,0.13073945,0.5910448649656577,0.0,0.05895495897293119,0.0012516615504862567
821572a8-af7e-40f4-b67b-c360eee2f132,7,1767701553272,2.96895,-6.95205,-5.71395,0.0059125,0.047025,0.0350625,-0.1202821731567382,-0.4637658596038818,-0.3461032485961919,15.4210817,73.98115,0.13073945,0.5910448649656577,0.0,0.05895495897293119,0.006249268800013236
821572a8-af7e-40f4-b67b-c360eee2f132,7,1767701553283,2.96895,-6.95205,-5.71395,0.0059125,0.047025,0.0350625,-0.1202821731567382,-0.4637658596038818,-0.3461032485961919,15.4210817,73.98115,0.13073945,0.5910448649656577,0.0,0.05895495897293119,0.01184864910610354
821572a8-af7e-40f4-b67b-c360eee2f132,7,1767701553294,3.9070501,-6.9139504,-5.6179504,0.0061875,0.0143,0.03355,-0.0160460472106933,0.4288378953933716,-0.0917211151123051,15.4210817,73.98115,0.13073945,0.4388304673948117,0.0,0.036991588993310356,-0.004366137392716291
821572a8-af7e-40f4-b67b-c360eee2f132,7,1767701553304,3.9070501,-6.9139504,-5.6179504,0.0061875,0.0143,0.03355,-0.0160460472106933,0.4288378953933716,-0.0917211151123051,15.4210817,73.98115,0.13073945,0.4388304673948117,0.0,0.036991588993310356,0.0010608414935683245
821572a8-af7e-40f4-b67b-c360eee2f132,7,1767701553315,3.9259503,-7.0480504,-5.8669505,0.014162499,-0.0045375,0.0174625,0.0838594436645507,0.3366496562957763,0.1593956375122065,15.4210817,73.98115,0.13073945,0.381801475421082,0.0,0.022936961229094863,-0.00833161603633444
821572a8-af7e-40f4-b67b-c360eee2f132,7,1767701553326,3.9259503,-7.0480504,-5.8669505,0.014162499,-0.0045375,0.0174625,0.0838594436645507,0.3366496562957763,0.1593956375122065,15.4210817,73.98115,0.13073945,0.381801475421082,0.0,0.022936961229094863,-0.004806014296097872
821572a8-af7e-40f4-b67b-c360eee2f132,7,1767701553336,3.8119502,-7.00995,-5.6179504,0.006325,-0.014162499,-0.001375,-0.0802125930786132,0.327831506729126,-0.0571637725830083,15.4210817,73.98115,0.13073945,0.3423087112368104,0.0,0.015571532613233708,-0.010046322720319452
821572a8-af7e-40f4-b67b-c360eee2f132,7,1767701553347,3.8119502,-7.00995,-5.6179504,0.006325,-0.014162499,-0.001375,-0.0802125930786132,0.327831506729126,-0.0571637725830083,15.4210817,73.98115,0.13073945,0.3423087112368104,0.0,0.015571532613233708,-0.00945339729020772
821572a8-af7e-40f4-b67b-c360eee2f132,7,1767701553358,3.2950501,-6.9910502,-5.46495,0.012925,0.0105875,-0.0276375,-0.253972053527832,-0.0952010154724121,-0.3482738113403325,15.4210817,73.98115,0.13073945,0.4414291392575302,0.0,0.03229523474910811,0.006340786013142334
821572a8-af7e-40f4-b67b-c360eee2f132,7,1767701553368,3.2950501,-6.9910502,-5.46495,0.012925,0.0105875,-0.0276375,-0.253972053527832,-0.0952010154724121,-0.3482738113403325,15.4210817,73.98115,0.13073945,0.4414291392575302,0.0,0.03229523474910811,0.004033211481060333
821572a8-af7e-40f4-b67b-c360eee2f132,7,1767701553379,3.2950501,-6.9910502,-5.46495,0.012925,0.0105875,-0.0276375,-0.253972053527832,-0.0952010154724121,-0.3482738113403325,15.4210817,73.98115,0.13073945,0.4414291392575302,0.0,0.03229523474910811,0.0006048275587762251
821572a8-af7e-40f4-b67b-c360eee2f132,7,1767701553390,3.2950501,-6.9910502,-5.46495,0.012925,0.0105875,-0.0276375,-0.253972053527832,-0.0952010154724121,-0.3482738113403325,15.4210817,73.98115,0.13073945,0.4414291392575302,0.0,0.03229523474910811,-0.003607985912479222
821572a8-af7e-40f4-b67b-c360eee2f132,7,1767701553401,3.084,-6.8950505,-5.1589503,0.0165,0.0218625,-0.0210375,-0.4436523914337158,-0.1727359294891357,-0.6754003143310552,15.4210817,73.98115,0.13073945,0.8263357249688645,0.0,0.034536868886741894,-0.005989354139552181
821572a8-af7e-40f4-b67b-c360eee2f132,7,1767701553412,3.0649502,-6.78,-5.5030503,0.029975,0.0383625,0.0050875,-0.1206145286560058,-0.3052073717117309,-0.5613141632080083,15.4210817,73.98115,0.13073945,0.6502099615416544,0.0,0.04894961376252115,0.0037586924783036555
821572a8-af7e-40f4-b67b-c360eee2f132,7,1767701553422,3.0649502,-6.78,-5.5030503,0.029975,0.0383625,0.0050875,-0.1206145286560058,-0.3052073717117309,-0.5613141632080083,15.4210817,73.98115,0.13073945,0.6502099615416544,0.0,0.04894961376252115,-0.0006254270749502465
821572a8-af7e-40f4-b67b-c360eee2f132,7,1767701553433,3.2950501,-6.8569503,-6.0390005,0.0435875,0.042625,0.015125,0.2553586959838867,-0.302250862121582,-0.1049438095092778,15.4210817,73.98115,0.13073945,0.4093615155606964,0.0,0.062813425366318,0.009378739659424458
821572a8-af7e-40f4-b67b-c360eee2f132,7,1767701553444,3.2950501,-6.8569503,-6.0390005,0.0435875,0.042625,0.015125,0.2553586959838867,-0.302250862121582,-0.1049438095092778,15.4210817,73.98115,0.13073945,0.4093615155606964,0.0,0.062813425366318,0.00618949351393337
821572a8-af7e-40f4-b67b-c360eee2f132,7,1767701553455,4.0030503,-6.76095,-5.9820004,0.0297,-0.01485,0.0677875,0.3947455883026123,0.3691256046295166,0.0503820800781245,15.4210817,73.98115,0.13073945,0.5427855427979639,0.0,0.07548349260765562,0.01638431565946356
821572a8-af7e-40f4-b67b-c360eee2f132,7,1767701553466,4.0030503,-6.76095,-5.9820004,0.0297,-0.01485,0.0677875,0.3947455883026123,0.3691256046295166,0.0503820800781245,15.4210817,73.98115,0.13073945,0.5427855427979639,0.0,0.07548349260765562,0.014575729514412002
821572a8-af7e-40f4-b67b-c360eee2f132,7,1767701553477,4.137,-6.95205,-6.0390005,0.0158125,-0.0193875,0.0562375,0.3389549255371094,0.4502372741699219,0.2695698165893549,15.4210817,73.98115,0.13073945,0.6247174806373256,0.0,0.0615513340127572,-0.0006116473611180945
821572a8-af7e-40f4-b67b-c360eee2f132,7,1767701553488,4.137,-6.95205,-6.0390005,0.0158125,-0.0193875,0.0562375,0.3389549255371094,0.4502372741699219,0.2695698165893549,15.4210817,73.98115,0.13073945,0.6247174806373256,0.0,0.0615513340127572,-0.0014588234214114536
821572a8-af7e-40f4-b67b-c360eee2f132,7,1767701553498,4.137,-6.95205,-6.0390005,0.0158125,-0.0193875,0.0562375,0.3389549255371094,0.4502372741699219,0.2695698165893549,15.4210817,73.98115,0.13073945,0.6247174806373256,0.0,0.0615513340127572,-0.0020392157498097603
821572a8-af7e-40f4-b67b-c360eee2f132,7,1767701553509,4.0219502,-6.9910502,-5.5800004,-0.005775,0.0031625,0.0207625,-0.0289993286132812,0.5047508478164673,-0.0155273056030278,15.4210817,73.98115,0.13073945,0.5058215857896472,0.0,0.021781493004383333,-0.04222917339855687
821572a8-af7e-40f4-b67b-c360eee2f132,7,1767701553520,4.0219502,-6.9910502,-5.5800004,-0.005775,0.0031625,0.0207625,-0.0289993286132812,0.5047508478164673,-0.0155273056030278,15.4210817,73.98115,0.13073945,0.5058215857896472,0.0,0.021781493004383333,-0.04254235503815378
821572a8-af7e-40f4-b67b-c360eee2f132,7,1767701553531,3.4480503,-7.0290003,-5.427,-0.028324999,0.0474375,-0.0198,-0.2552673816680908,0.0300285816192626,-0.2872806167602544,15.4210817,73.98115,0.13073945,0.3854780209349161,0.0,0.05869124274199688,-0.005837182464549748
821572a8-af7e-40f4-b67b-c360eee2f132,7,1767701553542,3.4480503,-7.0290003,-5.427,-0.028324999,0.0474375,-0.0198,-0.2552673816680908,0.0300285816192626,-0.2872806167602544,15.4210817,73.98115,0.13073945,0.3854780209349161,0.0,0.05869124274199688,-0.005891537240557212
821572a8-af7e-40f4-b67b-c360eee2f132,7,1767701553552,3.4480503,-6.7990503,-5.3310003,-0.02585,0.086625,-0.0504625,-0.1826925277709961,0.0940991640090942,-0.509813842773438,15.4210817,73.98115,0.13073945,0.549673872995603,0.0,0.1035305608564447,0.03909741859589728
821572a8-af7e-40f4-b67b-c360eee2f132,7,1767701553563,3.4480503,-6.7990503,-5.3310003,-0.02585,0.086625,-0.0504625,-0.1826925277709961,0.0940991640090942,-0.509813842773438,15.4210817,73.98115,0.13073945,0.549673872995603,0.0,0.1035305608564447,0.03948432080999334
821572a8-af7e-40f4-b67b-c360eee2f132,7,1767701553574,3.084,-6.9139504,-5.7910504,-0.02035,0.0699875,-0.022824999,0.0018706321716308,-0.4471124410629272,-0.2889619445800786,15.4210817,73.98115,0.13073945,0.5323645739842872,0.0,0.07637639187340549,0.012939134645948267
821572a8-af7e-40f4-b67b-c360eee2f132,7,1767701553585,3.084,-6.9139504,-5.7910504,-0.02035,0.0699875,-0.022824999,0.0018706321716308,-0.4471124410629272,-0.2889619445800786,15.4210817,73.98115,0.13073945,0.5323645739842872,0.0,0.07637639187340549,0.013691810474144852
821572a8-af7e-40f4-b67b-c360eee2f132,7,1767701553595,3.084,-6.9139504,-5.7910504,-0.02035,0.0699875,-0.022824999,0.0018706321716308,-0.4471124410629272,-0.2889619445800786,15.4210817,73.98115,0.13073945,0.5323645739842872,0.0,0.07637639187340549,0.014450094555803475
821572a8-af7e-40f4-b67b-c360eee2f132,7,1767701553606,3.04605,-6.8760004,-5.59905,-0.0044,0.0512875,0.006325,-0.1241250038146972,-0.4188164472579956,-0.444297370910645,15.4210817,73.98115,0.13073945,0.6230685250146402,0.0,0.05186302422005489,-0.00947524209986683
821572a8-af7e-40f4-b67b-c360eee2f132,7,1767701553617,3.04605,-6.8760004,-5.59905,-0.0044,0.0512875,0.006325,-0.1241250038146972,-0.4188164472579956,-0.444297370910645,15.4210817,73.98115,0.13073945,0.6230685250146402,0.0,0.05186302422005489,-0.00923552430136459
821572a8-af7e-40f4-b67b-c360eee2f132,7,1767701553628,3.4290001,-6.8760004,-6.0589504,-0.0037125,0.0023375,0.034925,0.2623977661132812,-0.2412790060043335,-0.0313859558105473,15.4210817,73.98115,0.13073945,0.3578452523393612,0.0,0.035199462886527116,-0.026147137342636483
821572a8-af7e-40f4-b67b-c360eee2f132,7,1767701553639,3.4290001,-6.8760004,-6.0589504,-0.0037125,0.0023375,0.034925,0.2623977661132812,-0.2412790060043335,-0.0313859558105473,15.4210817,73.98115,0.13073945,0.3578452523393612,0.0,0.035199462886527116,-0.026947770792969155
821572a8-af7e-40f4-b67b-c360eee2f132,7,1767701553649,3.8880002,-7.00995,-6.0390005,-0.0199375,-0.031075,0.0105875,0.2311749458312988,0.1713228225708007,0.2220844650268549,15.4210817,73.98115,0.13073945,0.3634760992417443,0.0,0.03840904434504977,-0.025059354256182782
821572a8-af7e-40f4-b67b-c360eee2f132,7,1767701553660,3.8880002,-7.00995,-6.0390005,-0.0199375,-0.031075,0.0105875,0.2311749458312988,0.1713228225708007,0.2220844650268549,15.4210817,73.98115,0.13073945,0.3634760992417443,0.0,0.03840904434504977,-0.026769598983816565
821572a8-af7e-40f4-b67b-c360eee2f132,7,1767701553671,3.7350001,-6.8950505,-5.7330003,-0.0573375,-0.0594,-0.0325875,0.0604429244995117,0.1702454090118408,-0.0978093719482426,15.4210817,73.98115,0.13073945,0.2054349523634484,0.0,0.08875750144353999,0.02169210511471873
821572a8-af7e-40f4-b67b-c360eee2f132,7,1767701553682,3.7350001,-6.8950505,-5.7330003,-0.0573375,-0.0594,-0.0325875,0.0604429244995117,0.1702454090118408,-0.0978093719482426,15.4210817,73.98115,0.13073945,0.2054349523634484,0.0,0.08875750144353999,0.019887343966832616
821572a8-af7e-40f4-b67b-c360eee2f132,7,1767701553693,3.1600502,-6.8950505,-5.484,-0.055275,-0.06435,-0.049225,-0.2245776653289795,-0.2594946622848511,-0.4567027664184575,15.4210817,73.98115,0.13073945,0.5712705351873281,0.0,0.09807827868595574,0.02774564092625457
821572a8-af7e-40f4-b67b-c360eee2f132,7,1767701553704,3.1600502,-6.8950505,-5.484,-0.055275,-0.06435,-0.049225,-0.2245776653289795,-0.2594946622848511,-0.4567027664184575,15.4210817,73.98115,0.13073945,0.5712705351873281,0.0,0.09807827868595574,0.02684433042945709
821572a8-af7e-40f4-b67b-c360eee2f132,7,1767701553715,3.1600502,-6.8950505,-5.484,-0.055275,-0.06435,-0.049225,-0.2245776653289795,-0.2594946622848511,-0.4567027664184575,15.4210817,73.98115,0.13073945,0.5712705351873281,0.0,0.09807827868595574,0.026648651710242544
821572a8-af7e-40f4-b67b-c360eee2f132,7,1767701553726,3.21795,-6.76095,-5.6179504,-0.0193875,-0.03795,-0.0463375,-0.0475244522094726,-0.2330043315887451,-0.4520888900756841,15.4210817,73.98115,0.13073945,0.510816950214842,0.0,0.06295428152635847,-0.007912047805747901
821572a8-af7e-40f4-b67b-c360eee2f132,7,1767701553737,3.21795,-6.76095,-5.6179504,-0.0193875,-0.03795,-0.0463375,-0.0475244522094726,-0.2330043315887451,-0.4520888900756841,15.4210817,73.98115,0.13073945,0.510816950214842,0.0,0.06295428152635847,-0.0066261501445667136
821572a8-af7e-40f4-b67b-c360eee2f132,7,1767701553747,3.7920003,-7.00995,-5.886,-0.007975,-0.036849998,-0.014162499,0.0537033081054687,0.1477277278900146,0.0965122604370112,15.4210817,73.98115,0.13073945,0.1844509238352538,0.0,0.04027529460506782,-0.027405993498489108
821572a8-af7e-40f4-b67b-c360eee2f132,7,1767701553758,3.7920003,-7.00995,-5.886,-0.007975,-0.036849998,-0.014162499,0.0537033081054687,0.1477277278900146,0.0965122604370112,15.4210817,73.98115,0.13073945,0.1844509238352538,0.0,0.04027529460506782,-0.025049886679027206
821572a8-af7e-40f4-b67b-c360eee2f132,7,1767701553769,3.7159503,-7.0290003,-5.8290005,0.003575,-0.041249998,0.0273625,-0.0142903327941894,0.1016719341278076,0.0480865859985346,15.4210817,73.98115,0.13073945,0.1133742279076352,0.0,0.04962911812887676,-0.013058181877348404
821572a8-af7e-40f4-b67b-c360eee2f132,7,1767701553779,3.7159503,-7.0290003,-5.8290005,0.003575,-0.041249998,0.0273625,-0.0142903327941894,0.1016719341278076,0.0480865859985346,15.4210817,73.98115,0.13073945,0.1133742279076352,0.0,0.04962911812887676,-0.010309092907165847
821572a8-af7e-40f4-b67b-c360eee2f132,7,1767701553790,3.4480503,-6.9910502,-5.427,-0.0028875,-0.054449998,0.039875,-0.3123328685760498,0.0160861015319824,-0.3169313049316411,15.4210817,73.98115,0.13073945,0.4452595147788693,0.0,0.06755113295459969,0.010322348616316203
821572a8-af7e-40f4-b67b-c360eee2f132,7,1767701553801,3.4480503,-6.9910502,-5.427,-0.0028875,-0.054449998,0.039875,-0.3123328685760498,0.0160861015319824,-0.3169313049316411,15.4210817,73.98115,0.13073945,0.4452595147788693,0.0,0.06755113295459969,0.012866800676530758
821572a8-af7e-40f4-b67b-c360eee2f132,7,1767701553812,3.4480503,-6.9910502,-5.427,-0.0028875,-0.054449998,0.039875,-0.3123328685760498,0.0160861015319824,-0.3169313049316411,15.4210817,73.98115,0.13073945,0.4452595147788693,0.0,0.06755113295459969,0.015145258602826617
821572a8-af7e-40f4-b67b-c360eee2f132,7,1767701553823,3.2950501,-6.8760004,-5.8099504,-0.00715,-0.045649998,0.0361625,0.0204243659973144,-0.2228944301605224,-0.2265687561035161,15.4210817,73.98115,0.13073945,0.3184846667663466,0.0,0.058675132924007965,0.008200403580050728
821572a8-af7e-40f4-b67b-c360eee2f132,7,1767701553834,3.2950501,-6.8760004,-5.8099504,-0.00715,-0.045649998,0.0361625,0.0204243659973144,-0.2228944301605224,-0.2265687561035161,15.4210817,73.98115,0.13073945,0.3184846667663466,0.0,0.058675132924007965,0.009718736603412765
821572a8-af7e-40f4-b67b-c360eee2f132,7,1767701553845,3.1600502,-7.0290003,-5.8099504,-0.0231,-0.0257125,0.0323125,-0.0998444557189941,-0.3529714345932007,-0.165636596679688,15.4210817,73.98115,0.13073945,0.4024838271735076,0.0,0.04731638524338054,-0.000584373202103858
821572a8-af7e-40f4-b67b-c360eee2f132,7,1767701553855,3.1600502,-7.0290003,-5.8099504,-0.0231,-0.0257125,0.0323125,-0.0998444557189941,-0.3529714345932007,-0.165636596679688,15.4210817,73.98115,0.13073945,0.4024838271735076,0.0,0.04731638524338054,-2.11396910638477e-05
821572a8-af7e-40f4-b67b-c360eee2f132,8,1767701553866,3.2370002,-6.95205,-5.44605,-0.028875,-0.0133375,0.0279125,-0.2962355613708496,-0.1277190446853637,-0.409756240844727,15.42108,73.9811483,0.10037083,0.5215053586563098,0.0,0.04231739816552998,-0.004950480632737971
821572a8-af7e-40f4-b67b-c360eee2f132,8,1767701553876,3.2370002,-6.95205,-5.44605,-0.028875,-0.0133375,0.0279125,-0.2962355613708496,-0.1277190446853637,-0.409756240844727,15.42108,73.9811483,0.10037083,0.5215053586563098,0.0,0.04231739816552998,-0.005337545458580363
821572a8-af7e-40f4-b67b-c360eee2f132,8,1767701553887,3.4290001,-6.76095,-5.7520504,-0.0077,0.006325,0.033825,0.0773158073425293,-0.0156214237213134,-0.2943091964721684,15.42108,73.9811483,0.10037083,0.3046960224095506,0.0,0.03526224964462704,-0.013154273314202328
821572a8-af7e-40f4-b67b-c360eee2f132,8,1767701553898,3.4290001,-6.76095,-5.7520504,-0.0077,0.006325,0.033825,0.0773158073425293,-0.0156214237213134,-0.2943091964721684,15.42108,73.9811483,0.10037083,0.3046960224095506,0.0,0.03526224964462704,-0.01416117807523119
821572a8-af7e-40f4-b67b-c360eee2f132,8,1767701553909,3.31395,-7.0290003,-5.886,0.00715,0.02145,0.047025,-0.0232801437377929,-0.2024476528167724,-0.063585815429688,15.42108,73.9811483,0.10037083,0.2134717150990526,0.0,0.05217830607637622,0.0016726619792796094
821572a8-af7e-40f4-b67b-c360eee2f132,8,1767701553920,3.31395,-7.0290003,-5.886,0.00715,0.02145,0.047025,-0.0232801437377929,-0.2024476528167724,-0.063585815429688,15.42108,73.9811483,0.10037083,0.2134717150990526,0.0,0.05217830607637622,0.0007114374047387363
821572a8-af7e-40f4-b67b-c360eee2f132,8,1767701553930,3.31395,-7.0290003,-5.886,0.00715,0.02145,0.047025,-0.0232801437377929,-0.2024476528167724,-0.063585815429688,15.42108,73.9811483,0.10037083,0.2134717150990526,0.0,0.05217830607637622,7.233040089581883e-05
821572a8-af7e-40f4-b67b-c360eee2f132,8,1767701553941,3.2950501,-7.00995,-5.8669505,0.018975,0.026675,0.0528,-0.0186352729797363,-0.2084202766418457,-0.0953660583496098,15.42108,73.9811483,0.10037083,0.2299586271476545,0.0,0.062124441647390276,0.00988216320931704
821572a8-af7e-40f4-b67b-c360eee2f132,8,1767701553951,3.2950501,-7.00995,-5.8669505,0.018975,0.026675,0.0528,-0.0186352729797363,-0.2084202766418457,-0.0953660583496098,15.42108,73.9811483,0.10037083,0.2299586271476545,0.0,0.062124441647390276,0.010384014466613429
821572a8-af7e-40f4-b67b-c360eee2f132,8,1767701553962,3.7540503,-6.8380504,-5.8290005,0.006325,-0.010175,0.0578875,0.1485452651977539,0.2571096420288086,-0.0765052413940434,15.42108,73.9811483,0.10037083,0.3066335203424667,0.0,0.059114286820108046,0.008583601957770968
821572a8-af7e-40f4-b67b-c360eee2f132,8,1767701553973,3.7540503,-6.8380504,-5.8290005,0.006325,-0.010175,0.0578875,0.1485452651977539,0.2571096420288086,-0.0765052413940434,15.42108,73.9811483,0.10037083,0.3066335203424667,0.0,0.059114286820108046,0.010493141601144427
821572a8-af7e-40f4-b67b-c360eee2f132,8,1767701553983,3.4290001,-6.7990503,-5.5420504,0.0034375,-0.0001375,0.0356125,-0.0768537521362304,0.0747402906417846,-0.3925710296630864,15.42108,73.9811483,0.10037083,0.4069454798782897,0.0,0.035778282082151454,-0.010321703679238117
821572a8-af7e-40f4-b67b-c360eee2f132,8,1767701553994,3.4290001,-6.7990503,-5.5420504,0.0034375,-0.0001375,0.0356125,-0.0768537521362304,0.0747402906417846,-0.3925710296630864,15.42108,73.9811483,0.10037083,0.4069454798782897,0.0,0.035778282082151454,-0.00734941301696104
821572a8-af7e-40f4-b67b-c360eee2f132,8,1767701554005,3.4290001,-6.7990503,-5.5420504,0.0034375,-0.0001375,0.0356125,-0.0768537521362304,0.0747402906417846,-0.3925710296630864,15.42108,73.9811483,0.10037083,0.4069454798782897,0.0,0.035778282082151454,-0.004142633552943939
821572a8-af7e-40f4-b67b-c360eee2f132,8,1767701554015,3.8880002,-6.8380504,-5.7520504,0.0015125,-0.0011,0.033,0.1180620193481445,0.4079658985137939,-0.0744357681274419,15.42108,73.9811483,0.10037083,0.4311791951607256,0.0,0.03305295230762299,-0.0036777559123138564
821572a8-af7e-40f4-b67b-c360eee2f132,8,1767701554026,3.8880002,-6.8380504,-5.7520504,0.0015125,-0.0011,0.033,0.1180620193481445,0.4079658985137939,-0.0744357681274419,15.42108,73.9811483,0.10037083,0.4311791951607256,0.0,0.03305295230762299,-0.0007655396164248865
821572a8-af7e-40f4-b67b-c360eee2f132,8,1767701554037,3.7729502,-6.8760004,-5.71395,0.0006875,0.005775,0.0319,0.0489134788513183,0.3104979991912842,-0.1112905120849614,15.42108,73.9811483,0.10037083,0.3334473181707449,0.0,0.0324258119597644,0.0009931075811201056
821572a8-af7e-40f4-b67b-c360eee2f132,8,1767701554047,3.7729502,-6.8760004,-5.71395,0.0006875,0.005775,0.0319,0.0489134788513183,0.3104979991912842,-0.1112905120849614,15.42108,73.9811483,0.10037083,0.3334473181707449,0.0,0.0324258119597644,0.0026372165057380057
821572a8-af7e-40f4-b67b-c360eee2f132,8,1767701554058,3.35205,-7.0669503,-5.6950502,-0.0105875,0.0103124995,0.0243375,-0.1569676399230957,-0.1034471988677978,-0.1365161514282231,15.42108,73.9811483,0.10037083,0.2323291254608296,0.0,0.028473789850272834,-0.0005789780384472696
821572a8-af7e-40f4-b67b-c360eee2f132,8,1767701554069,3.35205,-7.0669503,-5.6950502,-0.0105875,0.0103124995,0.0243375,-0.1569676399230957,-0.1034471988677978,-0.1365161514282231,15.42108,73.9811483,0.10037083,0.2323291254608296,0.0,0.028473789850272834,-0.0008595118273262124
821572a8-af7e-40f4-b67b-c360eee2f132,8,1767701554079,3.486,-7.1250005,-5.7520504,-0.011275,0.021175,0.015675,-0.123206615447998,-0.0045700073242187,-0.0126166915893559,15.42108,73.9811483,0.10037083,0.1239352087332538,0.0,0.028656794569525742,-0.0020188391710825324
821572a8-af7e-40f4-b67b-c360eee2f132,8,1767701554090,3.486,-7.1250005,-5.7520504,-0.011275,0.021175,0.015675,-0.123206615447998,-0.0045700073242187,-0.0126166915893559,15.42108,73.9811483,0.10037083,0.1239352087332538,0.0,0.028656794569525742,-0.004407028882165426
821572a8-af7e-40f4-b67b-c360eee2f132,8,1767701554101,2.95005,-6.8760004,-5.5800004,-0.0089375,0.043449998,-0.0059125,-0.1585927009582519,-0.3977622985839844,-0.4860931015014653,15.42108,73.9811483,0.10037083,0.647806293809625,0.0,0.044751970780067374,0.008325566531789242
821572a8-af7e-40f4-b67b-c360eee2f132,8,1767701554111,2.95005,-6.8760004,-5.5800004,-0.0089375,0.043449998,-0.0059125,-0.1585927009582519,-0.3977622985839844,-0.4860931015014653,15.42108,73.9811483,0.10037083,0.647806293809625,0.0,0.044751970780067374,0.004106263782798393
821572a8-af7e-40f4-b67b-c360eee2f132,8,1767701554122,2.95005,-6.8760004,-5.5800004,-0.0089375,0.043449998,-0.0059125,-0.1585927009582519,-0.3977622985839844,-0.4860931015014653,15.42108,73.9811483,0.10037083,0.647806293809625,0.0,0.044751970780067374,-0.0008174048637967712
821572a8-af7e-40f4-b67b-c360eee2f132,8,1767701554133,3.35205,-6.8950505,-5.637,-0.0163625,0.0430375,0.0177375,-0.0662603378295898,-0.0576708316802978,-0.2944322204589849,15.42108,73.9811483,0.10037083,0.3072567161843609,0.0,0.04934143004362561,-0.0016813742692548385
821572a8-af7e-40f4-b67b-c360eee2f132,8,1767701554143,3.35205,-6.8950505,-5.637,-0.0163625,0.0430375,0.0177375,-0.0662603378295898,-0.0576708316802978,-0.2944322204589849,15.42108,73.9811483,0.10037083,0.3072567161843609,0.0,0.04934143004362561,-0.007479942732971837
821572a8-af7e-40f4-b67b-c360eee2f132,8,1767701554154,3.04605,-6.9330006,-5.5420504,-0.0209,0.051975,0.032725,-0.2061467170715332,-0.3082411289215088,-0.4333396530151372,15.42108,73.9811483,0.10037083,0.5703440342402614,0.0,0.06487785639183835,0.0020963083324468646
821572a8-af7e-40f4-b67b-c360eee2f132,8,1767701554165,3.04605,-6.9330006,-5.5420504,-0.0209,0.051975,0.032725,-0.2061467170715332,-0.3082411289215088,-0.4333396530151372,15.42108,73.9811483,0.10037083,0.5703440342402614,0.0,0.06487785639183835,-0.003852204277571033
821572a8-af7e-40f4-b67b-c360eee2f132,8,1767701554176,3.4290001,-6.972,-5.84805,-0.02475,0.049775,0.0543125,0.0513567924499511,-0.0726048946380615,-0.0858750915527348,15.42108,73.9811483,0.10037083,0.123626543288009,0.0,0.0777171845942067,0.0032067456557486104
821572a8-af7e-40f4-b67b-c360eee2f132,8,1767701554186,3.4290001,-6.972,-5.84805,-0.02475,0.049775,0.0543125,0.0513567924499511,-0.0726048946380615,-0.0858750915527348,15.42108,73.9811483,0.10037083,0.123626543288009,0.0,0.0777171845942067,-0.002269088539063131
821572a8-af7e-40f4-b67b-c360eee2f132,8,1767701554197,3.65805,-6.9330006,-5.7330003,-0.0221375,0.068475,0.0664125,0.034341812133789,0.1890366077423095,-0.1003022766113286,15.42108,73.9811483,0.10037083,0.2167365816394817,0.0,0.09792606745652559,0.012885260015574928
821572a8-af7e-40f4-b67b-c360eee2f132,8,1767701554207,3.65805,-6.9330006,-5.7330003,-0.0221375,0.068475,0.0664125,0.034341812133789,0.1890366077423095,-0.1003022766113286,15.42108,73.9811483,0.10037083,0.2167365816394817,0.0,0.09792606745652559,0.008353141411320658
821572a8-af7e-40f4-b67b-c360eee2f132,8,1767701554218,3.65805,-6.9330006,-5.7330003,-0.0221375,0.068475,0.0664125,0.034341812133789,0.1890366077423095,-0.1003022766113286,15.42108,73.9811483,0.10037083,0.2167365816394817,0.0,0.09792606745652559,0.004435730151665591
