session_id,window_id,timestamp,accel_x,accel_y,accel_z,gyro_x,gyro_y,gyro_z,linear_accel_x,linear_accel_y,linear_accel_z,latitude,longitude,speed,vibration_intensity,anomaly_score,raw_magnitude,vibration_only
b0d7ef18-e8c6-4904-8b84-2893df044a1e,3,1767702737588,2.1460502,-7.7760005,-4.75605,0.0385,0.084425,0.0950125,-0.4520237445831299,0.433812141418457,-0.4665961837768559,15.4211267,73.9811583,0.13331306,0.7811724767451472,0.0,0.13280514214912764,-0.02215412528622094
b0d7ef18-e8c6-4904-8b84-2893df044a1e,3,1767702737599,2.1460502,-7.7760005,-4.75605,0.0385,0.084425,0.0950125,-0.4520237445831299,0.433812141418457,-0.4665961837768559,15.4211267,73.9811583,0.13331306,0.7811724767451472,0.0,0.13280514214912764,-0.013747180734631805
b0d7ef18-e8c6-4904-8b84-2893df044a1e,3,1767702737609,2.31795,-8.04405,-4.79505,0.039875,0.0424875,0.134475,-0.5416569709777832,0.5490511655807495,-0.1934857940673833,15.4211267,73.9811583,0.13331306,0.7951642655076324,0.0,0.14655623120921882,0.003865846726134603
b0d7ef18-e8c6-4904-8b84-2893df044a1e,3,1767702737620,2.31795,-8.04405,-4.79505,0.039875,0.0424875,0.134475,-0.5416569709777832,0.5490511655807495,-0.1934857940673833,15.4211267,73.9811583,0.13331306,0.7951642655076324,0.0,0.14655623120921882,0.004204928395907518
b0d7ef18-e8c6-4904-8b84-2893df044a1e,3,1767702737631,2.2410002,-7.9669504,-4.9290004,0.0567875,0.0066,0.1610125,-0.3483266830444336,0.4685869216918945,-0.1949849700927739,15.4211267,73.9811583,0.13331306,0.6155682901705569,0.0,0.17086077757197524,0.02655345590441565
b0d7ef18-e8c6-4904-8b84-2893df044a1e,3,1767702737642,2.2410002,-7.9669504,-4.9290004,0.0567875,0.0066,0.1610125,-0.3483266830444336,0.4685869216918945,-0.1949849700927739,15.4211267,73.9811583,0.13331306,0.6155682901705569,0.0,0.17086077757197524,0.023573671830610966
b0d7ef18-e8c6-4904-8b84-2893df044a1e,3,1767702737653,2.8159502,-7.6990504,-5.1390004,0.05555,-0.0314875,0.157575,-0.0158309936523437,1.069351315498352,-0.1938405609130864,15.4211267,73.9811583,0.13331306,1.0868932879419104,0.0,0.17002101570467693,0.01989604213340228
b0d7ef18-e8c6-4904-8b84-2893df044a1e,3,1767702737663,2.8159502,-7.6990504,-5.1390004,0.05555,-0.0314875,0.157575,-0.0158309936523437,1.069351315498352,-0.1938405609130864,15.4211267,73.9811583,0.13331306,1.0868932879419104,0.0,0.17002101570467693,0.018141217935837475
b0d7ef18-e8c6-4904-8b84-2893df044a1e,3,1767702737674,2.4139502,-7.872,-4.6990504,0.047575,-0.0347875,0.1354375,-0.4452536106109619,0.7007405161857605,-0.3660951232910161,15.4211267,73.9811583,0.13331306,0.9073663472290828,0.0,0.14770533906226951,-0.004206337693432234
b0d7ef18-e8c6-4904-8b84-2893df044a1e,3,1767702737685,2.4139502,-7.872,-4.6990504,0.047575,-0.0347875,0.1354375,-0.4452536106109619,0.7007405161857605,-0.3660951232910161,15.4211267,73.9811583,0.13331306,0.9073663472290828,0.0,0.14770533906226951,-0.0022060041649562875
b0d7ef18-e8c6-4904-8b84-2893df044a1e,3,1767702737696,2.4139502,-7.872,-4.6990504,0.047575,-0.0347875,0.1354375,-0.4452536106109619,0.7007405161857605,-0.3660951232910161,15.4211267,73.9811583,0.13331306,0.9073663472290828,0.0,0.14770533906226951,0.0018211447264679431
b0d7ef18-e8c6-4904-8b84-2893df044a1e,3,1767702737707,2.8920002,-7.9290004,-4.94805,0.041249998,-0.0477125,0.1139875,-0.2524747848510742,1.1371955871582031,-0.0961442565917973,15.4211267,73.9811583,0.13331306,1.1688460285740274,0.0,0.13027353970588199,-0.009823209516192236
b0d7ef18-e8c6-4904-8b84-2893df044a1e,3,1767702737717,2.8920002,-7.9290004,-4.94805,0.041249998,-0.0477125,0.1139875,-0.2524747848510742,1.1371955871582031,-0.0961442565917973,15.4211267,73.9811583,0.13331306,1.1688460285740274,0.0,0.13027353970588199,-0.002723977808623376
b0d7ef18-e8c6-4904-8b84-2893df044a1e,3,1767702737728,2.3370001,-7.9099503,-4.6990504,0.0356125,-0.040975,0.0862125,-0.4196500778198242,0.6206345558166504,-0.3469844436645513,15.4211267,73.9811583,0.13331306,0.8256461977343041,0.0,0.10188128354854978,-0.023245048563311436
b0d7ef18-e8c6-4904-8b84-2893df044a1e,3,1767702737739,2.3370001,-7.9099503,-4.6990504,0.0356125,-0.040975,0.0862125,-0.4196500778198242,0.6206345558166504,-0.3469844436645513,15.4211267,73.9811583,0.13331306,0.8256461977343041,0.0,0.10188128354854978,-0.01514483090764995
b0d7ef18-e8c6-4904-8b84-2893df044a1e,3,1767702737749,2.1649501,-7.833,-4.81395,0.0413875,-0.04235,0.07755,-0.2637782096862793,0.4580060243606567,-0.379320678710938,15.4211267,73.9811583,0.13331306,0.6505633247837445,0.0,0.09757279413981132,-0.01159620228553528
b0d7ef18-e8c6-4904-8b84-2893df044a1e,3,1767702737760,2.1649501,-7.833,-4.81395,0.0413875,-0.04235,0.07755,-0.2637782096862793,0.4580060243606567,-0.379320678710938,15.4211267,73.9811583,0.13331306,0.6505633247837445,0.0,0.09757279413981132,-0.004332341110038535
b0d7ef18-e8c6-4904-8b84-2893df044a1e,3,1767702737771,2.184,-7.9290004,-4.75605,0.044,-0.0526625,0.06435,-0.3481452465057373,0.4774527549743652,-0.3279233551025395,15.4211267,73.9811583,0.13331306,0.6757958069704622,0.0,0.09407582795941793,-0.001362231466722398
b0d7ef18-e8c6-4904-8b84-2893df044a1e,3,1767702737782,2.184,-7.9290004,-4.75605,0.044,-0.0526625,0.06435,-0.3481452465057373,0.4774527549743652,-0.3279233551025395,15.4211267,73.9811583,0.13331306,0.6757958069704622,0.0,0.09407582795941793,0.004250066799657341
b0d7ef18-e8c6-4904-8b84-2893df044a1e,3,1767702737793,2.184,-7.9290004,-4.75605,0.044,-0.0526625,0.06435,-0.3481452465057373,0.4774527549743652,-0.3279233551025395,15.4211267,73.9811583,0.13331306,0.6757958069704622,0.0,0.09407582795941793,0.009073031304635014
b0d7ef18-e8c6-4904-8b84-2893df044a1e,3,1767702737804,2.2800002,-7.8520503,-4.94805,0.0418,-0.0606375,0.065175,-0.1307935714721679,0.5694286823272705,-0.2708736038208013,15.4211267,73.9811583,0.13331306,0.643994170658621,0.0,0.09834595584593196,0.01752995554494497
b0d7ef18-e8c6-4904-8b84-2893df044a1e,3,1767702737814,2.2800002,-7.8520503,-4.94805,0.0418,-0.0606375,0.065175,-0.1307935714721679,0.5694286823272705,-0.2708736038208013,15.4211267,73.9811583,0.13331306,0.643994170658621,0.0,0.09834595584593196,0.021280536108260858
b0d7ef18-e8c6-4904-8b84-2893df044a1e,3,1767702737825,2.739,-7.833,-5.025,0.0281875,-0.04895,0.05555,-0.0534710884094238,1.016061305999756,-0.1625428771972661,15.4211267,73.9811583,0.13331306,1.0303688280286742,0.0,0.07922398725291475,0.005681214817870191
b0d7ef18-e8c6-4904-8b84-2893df044a1e,3,1767702737836,2.739,-7.833,-5.025,0.0281875,-0.04895,0.05555,-0.0534710884094238,1.016061305999756,-0.1625428771972661,15.4211267,73.9811583,0.13331306,1.0303688280286742,0.0,0.07922398725291475,0.009162170009048131
b0d7ef18-e8c6-4904-8b84-2893df044a1e,4,1767702737847,2.2410002,-7.8139505,-4.79505,0.011275,-0.0418,0.0248875,-0.2134261131286621,0.5487776398658752,-0.3905664062500005,15.42113,73.981165,0.16471112,0.706576054981351,0.0,0.049937493742177326,-0.01654044202756132
b0d7ef18-e8c6-4904-8b84-2893df044a1e,4,1767702737858,2.2410002,-7.8139505,-4.79505,0.011275,-0.0418,0.0248875,-0.2134261131286621,0.5487776398658752,-0.3905664062500005,15.42113,73.981165,0.16471112,0.706576054981351,0.0,0.049937493742177326,-0.012759662513108502
b0d7ef18-e8c6-4904-8b84-2893df044a1e,4,1767702737868,2.7769501,-7.872,-5.00505,-0.0017875,-0.044275,0.011,-0.0754413604736328,1.0359939336776731,-0.1326308822631841,15.42113,73.981165,0.16471112,1.047170368381842,0.0,0.045656004876138696,-0.013021074597718712
b0d7ef18-e8c6-4904-8b84-2893df044a1e,4,1767702737879,2.7769501,-7.872,-5.00505,-0.0017875,-0.044275,0.011,-0.0754413604736328,1.0359939336776731,-0.1326308822631841,15.42113,73.981165,0.16471112,1.047170368381842,0.0,0.045656004876138696,-0.008767187050897393
b0d7ef18-e8c6-4904-8b84-2893df044a1e,4,1767702737889,2.4709501,-7.7760005,-4.833,-0.0116875,-0.00825,-0.0462,-0.1621980667114257,0.753654956817627,-0.3582587814331059,15.42113,73.981165,0.16471112,0.8500902077160031,0.0,0.048364244605390044,-0.0016195514216885433
b0d7ef18-e8c6-4904-8b84-2893df044a1e,4,1767702737900,2.4709501,-7.7760005,-4.833,-0.0116875,-0.00825,-0.0462,-0.1621980667114257,0.753654956817627,-0.3582587814331059,15.42113,73.981165,0.16471112,0.8500902077160031,0.0,0.048364244605390044,0.0029186711464242857
b0d7ef18-e8c6-4904-8b84-2893df044a1e,4,1767702737910,2.4709501,-7.7760005,-4.833,-0.0116875,-0.00825,-0.0462,-0.1621980667114257,0.753654956817627,-0.3582587814331059,15.42113,73.981165,0.16471112,0.8500902077160031,0.0,0.048364244605390044,0.007434048482410666
b0d7ef18-e8c6-4904-8b84-2893df044a1e,4,1767702737921,2.529,-7.872,-4.8910503,-0.0083875,-0.009075,-0.0402875,-0.1690869331359863,0.7521555423736572,-0.2343917465209966,15.42113,73.981165,0.16471112,0.8057715816023218,0.0,0.04214010485867352,0.005549103789330417
b0d7ef18-e8c6-4904-8b84-2893df044a1e,4,1767702737932,2.529,-7.872,-4.8910503,-0.0083875,-0.009075,-0.0402875,-0.1690869331359863,0.7521555423736572,-0.2343917465209966,15.42113,73.981165,0.16471112,0.8057715816023218,0.0,0.04214010485867352,0.009532124909819336
b0d7ef18-e8c6-4904-8b84-2893df044a1e,4,1767702737942,2.529,-8.025001,-4.9099503,-0.0108624995,0.0012375,-0.0298375,-0.2302494049072265,0.693007230758667,-0.0955329513549809,15.42113,73.981165,0.16471112,0.7364783466867993,0.0,0.03177737729718266,0.0025980059633359883
b0d7ef18-e8c6-4904-8b84-2893df044a1e,4,1767702737953,2.529,-8.025001,-4.9099503,-0.0108624995,0.0012375,-0.0298375,-0.2302494049072265,0.693007230758667,-0.0955329513549809,15.42113,73.981165,0.16471112,0.7364783466867993,0.0,0.03177737729718266,0.005268474466969206
b0d7ef18-e8c6-4904-8b84-2893df044a1e,4,1767702737963,2.4709501,-7.9290004,-5.025,-0.0114124995,0.0114124995,-0.014025,-0.0758209228515625,0.6041598320007324,-0.1221452331542973,15.42113,73.981165,0.16471112,0.6210292850804489,0.0,0.021382023166085114,-0.003406916139764372
b0d7ef18-e8c6-4904-8b84-2893df044a1e,4,1767702737974,2.4709501,-7.9290004,-5.025,-0.0114124995,0.0114124995,-0.014025,-0.0758209228515625,0.6041598320007324,-0.1221452331542973,15.42113,73.981165,0.16471112,0.6210292850804489,0.0,0.021382023166085114,-0.0027990701259155196
b0d7ef18-e8c6-4904-8b84-2893df044a1e,4,1767702737985,2.6820002,-7.7569504,-4.87095,-0.015675,0.0143,-0.001925,-0.1179594993591308,0.8364574909210205,-0.3033700561523442,15.42113,73.981165,0.16471112,0.8975572230096655,0.0,0.02130495834307122,-0.0034919306257171867
b0d7ef18-e8c6-4904-8b84-2893df044a1e,4,1767702737996,2.6820002,-7.7569504,-4.87095,-0.015675,0.0143,-0.001925,-0.1179594993591308,0.8364574909210205,-0.3033700561523442,15.42113,73.981165,0.16471112,0.8975572230096655,0.0,0.02130495834307122,-0.005376614782570932
b0d7ef18-e8c6-4904-8b84-2893df044a1e,4,1767702738006,2.6820002,-7.7569504,-4.87095,-0.015675,0.0143,-0.001925,-0.1179594993591308,0.8364574909210205,-0.3033700561523442,15.42113,73.981165,0.16471112,0.8975572230096655,0.0,0.02130495834307122,-0.008499044453380537
b0d7ef18-e8c6-4904-8b84-2893df044a1e,4,1767702738017,2.22195,-7.872,-4.6800003,-0.0328625,0.0105875,-0.00055,-0.3228893280029297,0.3701197803020477,-0.3990150070190434,15.42113,73.981165,0.16471112,0.6328184145040557,0.0,0.03453029919505477,0.000475571303934378
b0d7ef18-e8c6-4904-8b84-2893df044a1e,4,1767702738028,2.22195,-7.872,-4.6800003,-0.0328625,0.0105875,-0.00055,-0.3228893280029297,0.3701197803020477,-0.3990150070190434,15.42113,73.981165,0.16471112,0.6328184145040557,0.0,0.03453029919505477,-0.004722777669593883
b0d7ef18-e8c6-4904-8b84-2893df044a1e,4,1767702738038,2.6239502,-8.06295,-4.833,-0.0292875,0.0204875,-0.01045,-0.3005213737487793,0.6979098320007324,-0.0797992324829106,15.42113,73.981165,0.16471112,0.7640413255760488,0.0,0.03723839164759939,-0.007924094259646079
b0d7ef18-e8c6-4904-8b84-2893df044a1e,4,1767702738049,2.6239502,-8.06295,-4.833,-0.0292875,0.0204875,-0.01045,-0.3005213737487793,0.6979098320007324,-0.0797992324829106,15.42113,73.981165,0.16471112,0.7640413255760488,0.0,0.03723839164759939,-0.01427338636120979
b0d7ef18-e8c6-4904-8b84-2893df044a1e,4,1767702738060,2.35605,-7.9099503,-4.7179503,-0.020075,0.0614625,-0.060225,-0.3023324012756347,0.447172999382019,-0.3186355209350591,15.42113,73.981165,0.16471112,0.6268150982857378,0.0,0.08836116316714035,0.03034226058411188
b0d7ef18-e8c6-4904-8b84-2893df044a1e,4,1767702738070,2.35605,-7.9099503,-4.7179503,-0.020075,0.0614625,-0.060225,-0.3023324012756347,0.447172999382019,-0.3186355209350591,15.42113,73.981165,0.16471112,0.6268150982857378,0.0,0.08836116316714035,0.02394807054564988
b0d7ef18-e8c6-4904-8b84-2893df044a1e,4,1767702738081,2.35605,-7.9099503,-4.7179503,-0.020075,0.0614625,-0.060225,-0.3023324012756347,0.447172999382019,-0.3186355209350591,15.42113,73.981165,0.16471112,0.6268150982857378,0.0,0.08836116316714035,0.017909414165302673
b0d7ef18-e8c6-4904-8b84-2893df044a1e,4,1767702738091,2.35605,-7.9669504,-4.737,-0.013062499,0.059675,-0.0273625,-0.3108363151550293,0.396234929561615,-0.2596688842773442,15.42113,73.981165,0.16471112,0.5666120927810273,0.0,0.06693609572850064,-0.008993619296291085
b0d7ef18-e8c6-4904-8b84-2893df044a1e,4,1767702738102,2.35605,-7.9669504,-4.737,-0.013062499,0.059675,-0.0273625,-0.3108363151550293,0.396234929561615,-0.2596688842773442,15.42113,73.981165,0.16471112,0.5666120927810273,0.0,0.06693609572850064,-0.01374460427162141
b0d7ef18-e8c6-4904-8b84-2893df044a1e,4,1767702738113,2.22195,-7.8910503,-4.6990504,0.003575,0.0710875,-0.0066,-0.2926516532897949,0.2655417621135711,-0.3690953826904302,15.42113,73.981165,0.16471112,0.5407298947931637,0.0,0.0714826781902441,-0.013090125789475054
b0d7ef18-e8c6-4904-8b84-2893df044a1e,4,1767702738124,2.22195,-7.8910503,-4.6990504,0.003575,0.0710875,-0.0066,-0.2926516532897949,0.2655417621135711,-0.3690953826904302,15.42113,73.981165,0.16471112,0.5407298947931637,0.0,0.0714826781902441,-0.01601892945014758
b0d7ef18-e8c6-4904-8b84-2893df044a1e,4,1767702738134,2.31795,-7.8139505,-5.025,0.034375,0.0768625,0.027224999,0.0297236442565917,0.3230516612529754,-0.2404590225219731,15.42113,73.981165,0.16471112,0.4038148243668407,0.0,0.08849115832556381,-0.0008934422786119527
b0d7ef18-e8c6-4904-8b84-2893df044a1e,4,1767702738145,2.31795,-7.8139505,-5.025,0.034375,0.0768625,0.027224999,0.0297236442565917,0.3230516612529754,-0.2404590225219731,15.42113,73.981165,0.16471112,0.4038148243668407,0.0,0.08849115832556381,-0.0016686446543899725
b0d7ef18-e8c6-4904-8b84-2893df044a1e,4,1767702738156,2.6239502,-7.623,-5.025,0.0254375,0.060225,0.06765,0.1350746154785156,0.6467795372009277,-0.3332238769531255,15.42113,73.981165,0.16471112,0.7400047794846915,0.0,0.09407783761997296,0.0042881304097804555
b0d7ef18-e8c6-4904-8b84-2893df044a1e,4,1767702738167,2.6239502,-7.623,-5.025,0.0254375,0.060225,0.06765,0.1350746154785156,0.6467795372009277,-0.3332238769531255,15.42113,73.981165,0.16471112,0.7400047794846915,0.0,0.09407783761997296,0.005808089151506138
b0d7ef18-e8c6-4904-8b84-2893df044a1e,4,1767702738177,2.2800002,-7.7760005,-4.986,0.008525,0.05555,0.066275,0.038588523864746,0.2849152386188507,-0.299892959594727,15.42113,73.981165,0.16471112,0.4154534325117333,0.0,0.08689564862523325,0.0012566870033085395
b0d7ef18-e8c6-4904-8b84-2893df044a1e,4,1767702738188,2.2800002,-7.7760005,-4.986,0.008525,0.05555,0.066275,0.038588523864746,0.2849152386188507,-0.299892959594727,15.42113,73.981165,0.16471112,0.4154534325117333,0.0,0.08689564862523325,0.004906002435055932
b0d7ef18-e8c6-4904-8b84-2893df044a1e,4,1767702738199,2.2800002,-7.7760005,-4.986,0.008525,0.05555,0.066275,0.038588523864746,0.2849152386188507,-0.299892959594727,15.42113,73.981165,0.16471112,0.4154534325117333,0.0,0.08689564862523325,0.009422811708531193
b0d7ef18-e8c6-4904-8b84-2893df044a1e,4,1767702738210,2.7970502,-7.9099503,-4.9669504,-0.00715,0.0386375,0.0594,-0.051279067993164,0.756536602973938,-0.0895877456665044,15.42113,73.981165,0.16471112,0.7635464220512068,0.0,0.07122035457823837,-0.0010767199368337354
b0d7ef18-e8c6-4904-8b84-2893df044a1e,4,1767702738221,2.7970502,-7.9099503,-4.9669504,-0.00715,0.0386375,0.0594,-0.051279067993164,0.756536602973938,-0.0895877456665044,15.42113,73.981165,0.16471112,0.7635464220512068,0.0,0.07122035457823837,0.004501171232694959
b0d7ef18-e8c6-4904-8b84-2893df044a1e,4,1767702738231,2.66295,-7.66095,-4.737,-0.020624999,0.0328625,0.039325,-0.1103081703186035,0.6816486120223999,-0.4428306198120122,15.42113,73.981165,0.16471112,0.8203119410042702,0.0,0.0552430096482804,-0.005784218783434267
b0d7ef18-e8c6-4904-8b84-2893df044a1e,4,1767702738242,2.66295,-7.66095,-4.737,-0.020624999,0.0328625,0.039325,-0.1103081703186035,0.6816486120223999,-0.4428306198120122,15.42113,73.981165,0.16471112,0.8203119410042702,0.0,0.0552430096482804,-0.0002742550685493293
b0d7ef18-e8c6-4904-8b84-2893df044a1e,4,1767702738253,2.4709501,-7.7179503,-4.81395,-0.0226875,0.033,0.024475,-0.0741462707519531,0.46004319190979,-0.3956847763061528,15.42113,73.981165,0.16471112,0.6113132176629424,0.0,0.0469334452309864,-0.0035332123404930634
b0d7ef18-e8c6-4904-8b84-2893df044a1e,4,1767702738263,2.4709501,-7.7179503,-4.81395,-0.0226875,0.033,0.024475,-0.0741462707519531,0.46004319190979,-0.3956847763061528,15.42113,73.981165,0.16471112,0.6113132176629424,0.0,0.0469334452309864,0.0008259670710027444
b0d7ef18-e8c6-4904-8b84-2893df044a1e,4,1767702738274,2.5090501,-7.9669504,-4.81395,-0.0237875,0.03575,0.004675,-0.2055821418762207,0.4397860169410705,-0.1816011047363286,15.42113,73.981165,0.16471112,0.5183191285267804,0.0,0.04319448206947271,0.0005907778900451142
b0d7ef18-e8c6-4904-8b84-2893df044a1e,4,1767702738285,2.5090501,-7.9669504,-4.81395,-0.0237875,0.03575,0.004675,-0.2055821418762207,0.4397860169410705,-0.1816011047363286,15.42113,73.981165,0.16471112,0.5183191285267804,0.0,0.04319448206947271,0.0031587579163486236
b0d7ef18-e8c6-4904-8b84-2893df044a1e,4,1767702738296,2.5090501,-7.9669504,-4.81395,-0.0237875,0.03575,0.004675,-0.2055821418762207,0.4397860169410705,-0.1816011047363286,15.42113,73.981165,0.16471112,0.5183191285267804,0.0,0.04319448206947271,0.004799448961007522
b0d7ef18-e8c6-4904-8b84-2893df044a1e,4,1767702738307,2.66295,-7.833,-4.7179503,-0.0199375,0.014025,-0.0086624995,-0.2138218879699707,0.5977355241775513,-0.3071971511840825,15.42113,73.981165,0.16471112,0.7052500594359924,0.0,0.025869739636059354,-0.011721344424804879
b0d7ef18-e8c6-4904-8b84-2893df044a1e,4,1767702738317,2.66295,-7.833,-4.7179503,-0.0199375,0.014025,-0.0086624995,-0.2138218879699707,0.5977355241775513,-0.3071971511840825,15.42113,73.981165,0.16471112,0.7052500594359924,0.0,0.025869739636059354,-0.011601295928340999
b0d7ef18-e8c6-4904-8b84-2893df044a1e,4,1767702738328,2.3749502,-7.8139505,-5.1780005,-0.0169125,0.010175,-0.022824999,0.1864295005798339,0.2482941150665283,-0.1449342346191411,15.42113,73.981165,0.16471112,0.3426541384950034,0.0,0.030175219313204684,-0.007676364513091354
b0d7ef18-e8c6-4904-8b84-2893df044a1e,4,1767702738339,2.3749502,-7.8139505,-5.1780005,-0.0169125,0.010175,-0.022824999,0.1864295005798339,0.2482941150665283,-0.1449342346191411,15.42113,73.981165,0.16471112,0.3426541384950034,0.0,0.030175219313204684,-0.00838497904373777
b0d7ef18-e8c6-4904-8b84-2893df044a1e,4,1767702738350,2.6239502,-8.19705,-4.87095,-0.02365,-0.00055,-0.0341,-0.2727136611938476,0.4271015524864197,0.0665430450439448,15.42113,73.981165,0.16471112,0.5110933906653295,0.0,0.04150222885580966,0.0020211869821093148
b0d7ef18-e8c6-4904-8b84-2893df044a1e,4,1767702738361,2.6239502,-8.19705,-4.87095,-0.02365,-0.00055,-0.0341,-0.2727136611938476,0.4271015524864197,0.0665430450439448,15.42113,73.981165,0.16471112,0.5110933906653295,0.0,0.04150222885580966,0.000903245719169425
b0d7ef18-e8c6-4904-8b84-2893df044a1e,4,1767702738372,2.6239502,-8.19705,-4.87095,-0.02365,-0.00055,-0.0341,-0.2727136611938476,0.4271015524864197,0.0665430450439448,15.42113,73.981165,0.16471112,0.5110933906653295,0.0,0.04150222885580966,-0.0005316347908490776
b0d7ef18-e8c6-4904-8b84-2893df044a1e,4,1767702738383,2.6239502,-8.19705,-4.87095,-0.02365,-0.00055,-0.0341,-0.2727136611938476,0.4271015524864197,0.0665430450439448,15.42113,73.981165,0.16471112,0.5110933906653295,0.0,0.04150222885580966,-0.002554774418812239
b0d7ef18-e8c6-4904-8b84-2893df044a1e,4,1767702738393,1.8970501,-7.9870505,-4.60305,-0.0127875,0.0017875,-0.08965,-0.3732883930206299,-0.2352100908756256,-0.408657608032227,15.42113,73.981165,0.16471112,0.6013892681252847,0.0,0.0905750396770545,0.043491890467667375
b0d7ef18-e8c6-4904-8b84-2893df044a1e,4,1767702738404,1.8970501,-7.9870505,-4.60305,-0.0127875,0.0017875,-0.08965,-0.3732883930206299,-0.2352100908756256,-0.408657608032227,15.42113,73.981165,0.16471112,0.6013892681252847,0.0,0.0905750396770545,0.038941204378157936
b0d7ef18-e8c6-4904-8b84-2893df044a1e,4,1767702738415,1.8970501,-7.9870505,-4.60305,-0.0127875,0.0017875,-0.08965,-0.3732883930206299,-0.2352100908756256,-0.408657608032227,15.42113,73.981165,0.16471112,0.6013892681252847,0.0,0.0905750396770545,0.03230268708115489
b0d7ef18-e8c6-4904-8b84-2893df044a1e,4,1767702738426,1.7050501,-7.9669504,-4.4500504,0.0308,-0.015262499,-0.034925,-0.4842302799224853,-0.4226362109184265,-0.5488267517089849,15.42113,73.981165,0.16471112,0.845169293197954,0.0,0.049003464170658394,-0.01851235319170151
b0d7ef18-e8c6-4904-8b84-2893df044a1e,4,1767702738437,1.7050501,-7.9669504,-4.4500504,0.0308,-0.015262499,-0.034925,-0.4842302799224853,-0.4226362109184265,-0.5488267517089849,15.42113,73.981165,0.16471112,0.845169293197954,0.0,0.049003464170658394,-0.030731777154007336
b0d7ef18-e8c6-4904-8b84-2893df044a1e,4,1767702738448,1.59,-7.9669504,-4.66095,0.065725,-0.0044,-0.01045,-0.2920663356781006,-0.561254620552063,-0.4652400588989263,15.42113,73.981165,0.16471112,0.7853392935106135,0.0,0.0666958628776928,-0.028362838776986053
b0d7ef18-e8c6-4904-8b84-2893df044a1e,4,1767702738458,1.59,-7.9669504,-4.66095,0.065725,-0.0044,-0.01045,-0.2920663356781006,-0.561254620552063,-0.4652400588989263,15.42113,73.981165,0.16471112,0.7853392935106135,0.0,0.0666958628776928,-0.046598441755270115
b0d7ef18-e8c6-4904-8b84-2893df044a1e,4,1767702738469,1.9920001,-7.9870505,-4.6420503,0.0983125,-0.0237875,0.0705375,-0.3051447868347168,-0.1725244224071502,-0.3661237335205083,15.42113,73.981165,0.16471112,0.5068773081390818,0.0,0.12331557776189511,-0.010572288070467034
b0d7ef18-e8c6-4904-8b84-2893df044a1e,4,1767702738480,1.9920001,-7.9870505,-4.6420503,0.0983125,-0.0237875,0.0705375,-0.3051447868347168,-0.1725244224071502,-0.3661237335205083,15.42113,73.981165,0.16471112,0.5068773081390818,0.0,0.12331557776189511,-0.03260972821639789
b0d7ef18-e8c6-4904-8b84-2893df044a1e,4,1767702738491,1.9729501,-8.025001,-4.5079503,0.103125,-0.0683375,0.18975,-0.4089181423187256,-0.169837474822998,-0.4068770980834966,15.42113,73.981165,0.16471112,0.601338330656293,0.0,0.2265167588308865,0.04833393301973915
b0d7ef18-e8c6-4904-8b84-2893df044a1e,4,1767702738501,1.9729501,-8.025001,-4.5079503,0.103125,-0.0683375,0.18975,-0.4089181423187256,-0.169837474822998,-0.4068770980834966,15.42113,73.981165,0.16471112,0.601338330656293,0.0,0.2265167588308865,0.027296127884911755
b0d7ef18-e8c6-4904-8b84-2893df044a1e,4,1767702738513,1.9729501,-8.025001,-4.5079503,0.103125,-0.0683375,0.18975,-0.4089181423187256,-0.169837474822998,-0.4068770980834966,15.42113,73.981165,0.16471112,0.601338330656293,0.0,0.2265167588308865,0.009006800636088906
b0d7ef18-e8c6-4904-8b84-2893df044a1e,4,1767702738524,2.49,-8.254951,-4.6800003,0.1051875,-0.0592625,0.212025,-0.3514707088470459,0.3039612472057342,-0.010469017028809,15.42113,73.981165,0.16471112,0.4647942548029826,0.0,0.24398986595246122,0.012410366336558905
b0d7ef18-e8c6-4904-8b84-2893df044a1e,4,1767702738535,2.49,-8.254951,-4.6800003,0.1051875,-0.0592625,0.212025,-0.3514707088470459,0.3039612472057342,-0.010469017028809,15.42113,73.981165,0.16471112,0.4647942548029826,0.0,0.24398986595246122,0.00382360190787375
b0d7ef18-e8c6-4904-8b84-2893df044a1e,4,1767702738545,2.8159502,-8.50395,-5.06295,0.1109625,-0.0187,0.1923625,-0.1313948631286621,0.5766271352767944,0.4628004455566401,15.42113,73.981165,0.16471112,0.7509645235306041,0.0,0.22285802164719132,-0.019498859416197546
b0d7ef18-e8c6-4904-8b84-2893df044a1e,4,1767702738556,2.8159502,-8.50395,-5.06295,0.1109625,-0.0187,0.1923625,-0.1313948631286621,0.5766271352767944,0.4628004455566401,15.42113,73.981165,0.16471112,0.7509645235306041,0.0,0.22285802164719132,-0.01484932935113755
b0d7ef18-e8c6-4904-8b84-2893df044a1e,4,1767702738567,2.4709501,-8.446051,-5.1390004,0.112475,-0.0042625,0.17173749,-0.0020742416381835,0.2822964787483215,0.3768057250976557,15.42113,73.981165,0.16471112,0.4708271008113756,0.0,0.2053352380931001,-0.020996132390953718
b0d7ef18-e8c6-4904-8b84-2893df044a1e,4,1767702738578,2.4709501,-8.446051,-5.1390004,0.112475,-0.0042625,0.17173749,-0.0020742416381835,0.2822964787483215,0.3768057250976557,15.42113,73.981165,0.16471112,0.4708271008113756,0.0,0.2053352380931001,-0.0036138861118517516
b0d7ef18-e8c6-4904-8b84-2893df044a1e,4,1767702738590,1.9920001,-7.9870505,-5.0820003,0.1148125,0.0045375,0.1546875,0.2262659072875976,-0.0653524696826934,-0.1387887573242192,15.42113,73.981165,0.16471112,0.2733670156655849,0.0,0.19269333594795127,0.005803473032836245
b0d7ef18-e8c6-4904-8b84-2893df044a1e,4,1767702738600,1.9920001,-7.9870505,-5.0820003,0.1148125,0.0045375,0.1546875,0.2262659072875976,-0.0653524696826934,-0.1387887573242192,15.42113,73.981165,0.16471112,0.2733670156655849,0.0,0.19269333594795127,0.03065016480646554
b0d7ef18-e8c6-4904-8b84-2893df044a1e,4,1767702738611,2.60505,-7.5840006,-5.1589503,0.075075,-0.007975,0.122375,0.5155658721923828,0.6126958727836609,-0.3085828399658208,15.42113,73.981165,0.16471112,0.8581536984812195,0.0,0.14378976623876957,0.007033501160505396
b0d7ef18-e8c6-4904-8b84-2893df044a1e,4,1767702738622,2.60505,-7.5840006,-5.1589503,0.075075,-0.007975,0.122375,0.5155658721923828,0.6126958727836609,-0.3085828399658208,15.42113,73.981165,0.16471112,0.8581536984812195,0.0,0.14378976623876957,0.03011123816208798
b0d7ef18-e8c6-4904-8b84-2893df044a1e,4,1767702738633,3.6390002,-7.7569504,-4.87095,0.0284625,-0.04455,0.11165,0.183568000793457,1.6138120889663696,-0.088854370117188,15.42113,73.981165,0.16471112,1.6266474014051806,0.0,0.1235335537667803,0.027973613680428312
b0d7ef18-e8c6-4904-8b84-2893df044a1e,4,1767702738644,3.6390002,-7.7569504,-4.87095,0.0284625,-0.04455,0.11165,0.183568000793457,1.6138120889663696,-0.088854370117188,15.42113,73.981165,0.16471112,1.6266474014051806,0.0,0.1235335537667803,0.03851686597203785
b0d7ef18-e8c6-4904-8b84-2893df044a1e,4,1767702738654,3.6390002,-7.7569504,-4.87095,0.0284625,-0.04455,0.11165,0.183568000793457,1.6138120889663696,-0.088854370117188,15.42113,73.981165,0.16471112,1.6266474014051806,0.0,0.1235335537667803,0.039249403872644535
b0d7ef18-e8c6-4904-8b84-2893df044a1e,4,1767702738666,3.1219501,-7.5840006,-5.1010504,-0.0308,-0.00935,0.0397375,0.4639925956726074,1.1166125535964966,-0.2276082611083989,15.42113,73.981165,0.16471112,1.2304138507888644,0.0,0.05113835552938714,-0.0438449873135847
b0d7ef18-e8c6-4904-8b84-2893df044a1e,4,1767702738676,3.1219501,-7.5840006,-5.1010504,-0.0308,-0.00935,0.0397375,0.4639925956726074,1.1166125535964966,-0.2276082611083989,15.42113,73.981165,0.16471112,1.2304138507888644,0.0,0.05113835552938714,-0.0667918547924201
b0d7ef18-e8c6-4904-8b84-2893df044a1e,4,1767702738687,3.5430002,-7.2780004,-5.025,-0.0691625,-0.0,-0.0226875,0.5223181247711182,1.5502290725708008,-0.4240136718750005,15.42113,73.981165,0.16471112,1.6899153809717995,0.0,0.07278855722227223,-0.08022764544755075
b0d7ef18-e8c6-4904-8b84-2893df044a1e,4,1767702738698,3.5430002,-7.2780004,-5.025,-0.0691625,-0.0,-0.0226875,0.5223181247711182,1.5502290725708008,-0.4240136718750005,15.42113,73.981165,0.16471112,1.6899153809717995,0.0,0.07278855722227223,-0.12639365966852817
b0d7ef18-e8c6-4904-8b84-2893df044a1e,4,1767702738709,4.11795,-7.1250005,-5.06295,-0.0952875,0.094325,-0.2388375,0.5916752815246582,2.085573673248291,-0.3942189788818364,15.42113,73.981165,0.16471112,2.203430459221323,0.0,0.27389827434195346,0.01940216662512059
b0d7ef18-e8c6-4904-8b84-2893df044a1e,4,1767702738719,4.11795,-7.1250005,-5.06295,-0.0952875,0.094325,-0.2388375,0.5916752815246582,2.085573673248291,-0.3942189788818364,15.42113,73.981165,0.16471112,2.203430459221323,0.0,0.27389827434195346,-0.04243000809449789
b0d7ef18-e8c6-4904-8b84-2893df044a1e,4,1767702738730,4.0219502,-7.0480504,-5.427,-0.1258125,0.1810875,-0.4761625,0.8685765266418457,1.8210641145706177,-0.25841480255127,15.42113,73.981165,0.16471112,2.034079128792116,0.0,0.5247401206490219,0.14313652825388615
b0d7ef18-e8c6-4904-8b84-2893df044a1e,4,1767702738741,4.0219502,-7.0480504,-5.427,-0.1258125,0.1810875,-0.4761625,0.8685765266418457,1.8210641145706177,-0.25841480255127,15.42113,73.981165,0.16471112,2.034079128792116,0.0,0.5247401206490219,0.07764533606948552
b0d7ef18-e8c6-4904-8b84-2893df044a1e,4,1767702738752,4.0219502,-7.0480504,-5.427,-0.1258125,0.1810875,-0.4761625,0.8685765266418457,1.8210641145706177,-0.25841480255127,15.42113,73.981165,0.16471112,2.034079128792116,0.0,0.5247401206490219,0.015023622522287707
b0d7ef18-e8c6-4904-8b84-2893df044a1e,4,1767702738763,3.7540503,-7.00995,-5.7330003,-0.1684375,0.18259999,-0.5614125,1.0703957080841064,1.364783525466919,-0.1616216278076176,15.42113,73.981165,0.16471112,1.7419823747231118,0.0,0.613920143756906,0.047139510564968436
b0d7ef18-e8c6-4904-8b84-2893df044a1e,4,1767702738774,3.7540503,-7.00995,-5.7330003,-0.1684375,0.18259999,-0.5614125,1.0703957080841064,1.364783525466919,-0.1616216278076176,15.42113,73.981165,0.16471112,1.7419823747231118,0.0,0.613920143756906,-0.0022628198614736265
b0d7ef18-e8c6-4904-8b84-2893df044a1e,4,1767702738784,3.4669502,-6.9139504,-5.7709503,-0.241175,0.1423125,-0.59482497,1.072648048400879,0.940934717655182,-0.2658706283569341,15.42113,73.981165,0.16471112,1.4514197083028608,0.0,0.6574457948886364,0.0009414372702767092
b0d7ef18-e8c6-4904-8b84-2893df044a1e,4,1767702738795,3.4669502,-6.9139504,-5.7709503,-0.241175,0.1423125,-0.59482497,1.072648048400879,0.940934717655182,-0.2658706283569341,15.42113,73.981165,0.16471112,1.4514197083028608,0.0,0.6574457948886364,-0.029578751264289507
b0d7ef18-e8c6-4904-8b84-2893df044a1e,4,1767702738805,3.21795,-6.95205,-5.2930503,-0.3565375,0.0592625,-0.5990875,0.5794966220855713,0.6174101829528809,-0.537157592773438,15.42113,73.981165,0.16471112,1.0027711346546888,0.0,0.6996691114153533,-0.007990067338506573
b0d7ef18-e8c6-4904-8b84-2893df044a1e,4,1767702738816,3.21795,-6.95205,-5.2930503,-0.3565375,0.0592625,-0.5990875,0.5794966220855713,0.6174101829528809,-0.537157592773438,15.42113,73.981165,0.16471112,1.0027711346546888,0.0,0.6996691114153533,-0.019170995119436467
b0d7ef18-e8c6-4904-8b84-2893df044a1e,4,1767702738827,3.1030502,-7.182,-5.025,-0.382525,0.0400125,-0.5845125,0.1355829238891601,0.3568404912948608,-0.5194154357910161,15.42113,73.981165,0.16471112,0.6446008535643298,0.0,0.699700820663732,-0.021662839968411653
b0d7ef18-e8c6-4904-8b84-2893df044a1e,4,1767702738837,3.1030502,-7.182,-5.025,-0.382525,0.0400125,-0.5845125,0.1355829238891601,0.3568404912948608,-0.5194154357910161,15.42113,73.981165,0.16471112,0.6446008535643298,0.0,0.699700820663732,-0.016531410510073393
b0d7ef18-e8c6-4904-8b84-2893df044a1e,4,1767702738848,3.7920003,-7.2400503,-5.274,-0.3639625,0.0682,-0.566225,0.1786417961120605,0.8290504813194275,-0.1201358413696294,15.42113,73.981165,0.16471112,0.8565455109191258,0.0,0.6765579738878628,-0.027953382030711228
b0d7ef18-e8c6-4904-8b84-2893df044a1e,5,1767702738859,3.7920003,-7.2400503,-5.274,-0.3639625,0.0682,-0.566225,0.1786417961120605,0.8290504813194275,-0.1201358413696294,15.4211317,73.9811717,0.22287472,0.8565455109191258,0.0,0.6765579738878628,-0.0106608068763861
b0d7ef18-e8c6-4904-8b84-2893df044a1e,5,1767702738869,3.4290001,-7.39305,-5.9820004,-0.32945,0.11935,-0.5754375,0.612952709197998,0.2506780624389648,0.277666511535644,15.4211317,73.9811717,0.22287472,0.7180871857439687,0.0,0.6737284626659691,0.008473765348610638
b0d7ef18-e8c6-4904-8b84-2893df044a1e,5,1767702738879,3.4290001,-7.39305,-5.9820004,-0.32945,0.11935,-0.5754375,0.612952709197998,0.2506780624389648,0.277666511535644,15.4211317,73.9811717,0.22287472,0.7180871857439687,0.0,0.6737284626659691,0.03435365757002621
b0d7ef18-e8c6-4904-8b84-2893df044a1e,5,1767702738890,2.56695,-7.2780004,-5.7330003,-0.2998875,0.0875875,-0.490875,0.4153223037719726,-0.6179665923118591,-0.2250409698486333,15.4211317,73.9811717,0.22287472,0.7778295207398622,0.0,0.5818611075140698,-0.02834003658502489
b0d7ef18-e8c6-4904-8b84-2893df044a1e,5,1767702738901,2.56695,-7.2780004,-5.7330003,-0.2998875,0.0875875,-0.490875,0.4153223037719726,-0.6179665923118591,-0.2250409698486333,15.4211317,73.9811717,0.22287472,0.7778295207398622,0.0,0.5818611075140698,0.003600414006406688
b0d7ef18-e8c6-4904-8b84-2893df044a1e,5,1767702738911,2.56695,-7.2780004,-5.7330003,-0.2998875,0.0875875,-0.490875,0.4153223037719726,-0.6179665923118591,-0.2250409698486333,15.4211317,73.9811717,0.22287472,0.7778295207398622,0.0,0.5818611075140698,0.03782212574565529
b0d7ef18-e8c6-4904-8b84-2893df044a1e,5,1767702738922,3.141,-7.182,-5.427,-0.3086875,0.0039875,-0.3950375,0.1115727424621582,-0.102608323097229,-0.2770886993408208,15.4211317,73.9811717,0.22287472,0.3158402952945368,0.0,0.5013566586959327,-0.00667874933612044
b0d7ef18-e8c6-4904-8b84-2893df044a1e,5,1767702738932,3.141,-7.182,-5.427,-0.3086875,0.0039875,-0.3950375,0.1115727424621582,-0.102608323097229,-0.2770886993408208,15.4211317,73.9811717,0.22287472,0.3158402952945368,0.0,0.5013566586959327,0.030548270058125944
b0d7ef18-e8c6-4904-8b84-2893df044a1e,5,1767702738943,3.25605,-7.2970505,-5.04405,-0.297275,-0.0484,-0.2998875,-0.3496150970458984,-0.0489114522933959,-0.3671899414062505,15.4211317,73.9811717,0.22287472,0.5093638182260178,0.0,0.42502646774201014,-0.00797498965440368
b0d7ef18-e8c6-4904-8b84-2893df044a1e,5,1767702738953,3.25605,-7.2970505,-5.04405,-0.297275,-0.0484,-0.2998875,-0.3496150970458984,-0.0489114522933959,-0.3671899414062505,15.4211317,73.9811717,0.22287472,0.5093638182260178,0.0,0.42502646774201014,0.029680900047009618
b0d7ef18-e8c6-4904-8b84-2893df044a1e,5,1767702738964,2.8920002,-7.8520503,-5.59905,-0.254925,-0.0760375,-0.1907125,-0.2633018493652344,-0.6961568593978882,0.2306055450439448,15.4211317,73.9811717,0.22287472,0.7791926296949289,0.0,0.32732203513894387,-0.03131535155360268
b0d7ef18-e8c6-4904-8b84-2893df044a1e,5,1767702738974,2.8920002,-7.8520503,-5.59905,-0.254925,-0.0760375,-0.1907125,-0.2633018493652344,-0.6961568593978882,0.2306055450439448,15.4211317,73.9811717,0.22287472,0.7791926296949289,0.0,0.32732203513894387,0.003624479864726369
b0d7ef18-e8c6-4904-8b84-2893df044a1e,5,1767702738985,3.141,-7.8910503,-5.6950502,-0.2143625,-0.1252625,-0.0627,-0.2828822135925293,-0.5112264156341553,0.3991531753540034,15.4211317,73.9811717,0.22287472,0.7076002064756195,0.0,0.25607277346976975,-0.03524322220252445
b0d7ef18-e8c6-4904-8b84-2893df044a1e,5,1767702738996,3.141,-7.8910503,-5.6950502,-0.2143625,-0.1252625,-0.0627,-0.2828822135925293,-0.5112264156341553,0.3991531753540034,15.4211317,73.9811717,0.22287472,0.7076002064756195,0.0,0.25607277346976975,-0.0061201237519169895
b0d7ef18-e8c6-4904-8b84-2893df044a1e,5,1767702739006,3.141,-7.8910503,-5.6950502,-0.2143625,-0.1252625,-0.0627,-0.2828822135925293,-0.5112264156341553,0.3991531753540034,15.4211317,73.9811717,0.22287472,0.7076002064756195,0.0,0.25607277346976975,0.01918888761972141
b0d7ef18-e8c6-4904-8b84-2893df044a1e,5,1767702739017,3.1030502,-7.6420503,-5.3500504,-0.1461625,-0.1266375,0.0675125,-0.4477815628051758,-0.3914899826049804,0.0032123947143549,15.4211317,73.9811717,0.22287472,0.5947966492408092,0.0,0.20483766857868208,-0.010918724365875617
b0d7ef18-e8c6-4904-8b84-2893df044a1e,5,1767702739028,3.1030502,-7.6420503,-5.3500504,-0.1461625,-0.1266375,0.0675125,-0.4477815628051758,-0.3914899826049804,0.0032123947143549,15.4211317,73.9811717,0.22287472,0.5947966492408092,0.0,0.20483766857868208,0.00587567587921132
b0d7ef18-e8c6-4904-8b84-2893df044a1e,5,1767702739038,3.00705,-7.0480504,-5.676,-0.0710875,-0.083875,0.143275,0.1353240013122558,-0.3039446473121643,-0.2798553085327153,15.4211317,73.9811717,0.22287472,0.4347573204384449,0.0,0.18059948478954752,-0.005827628024206439
b0d7ef18-e8c6-4904-8b84-2893df044a1e,5,1767702739049,3.00705,-7.0480504,-5.676,-0.0710875,-0.083875,0.143275,0.1353240013122558,-0.3039446473121643,-0.2798553085327153,15.4211317,73.9811717,0.22287472,0.4347573204384449,0.0,0.18059948478954752,0.0027370157661631605
b0d7ef18-e8c6-4904-8b84-2893df044a1e,5,1767702739059,3.4669502,-7.25895,-5.9440503,-0.039875,-0.055,0.1725625,0.1726922988891601,0.0568830966949462,0.1905397796630854,15.4211317,73.9811717,0.22287472,0.2633699383363386,0.0,0.1854530453544778,0.012663049444530753
b0d7ef18-e8c6-4904-8b84-2893df044a1e,5,1767702739070,3.4669502,-7.25895,-5.9440503,-0.039875,-0.055,0.1725625,0.1726922988891601,0.0568830966949462,0.1905397796630854,15.4211317,73.9811717,0.22287472,0.2633699383363386,0.0,0.1854530453544778,0.014868085439442862
b0d7ef18-e8c6-4904-8b84-2893df044a1e,5,1767702739081,3.6390002,-7.2970505,-6.0010505,-0.0468875,-0.0125124995,0.1538625,0.1730756759643554,0.2315935492515564,0.310193481445312,15.4211317,73.9811717,0.22287472,0.4240409857509233,0.0,0.1613340299076345,-0.00919627220154423
b0d7ef18-e8c6-4904-8b84-2893df044a1e,5,1767702739092,3.6390002,-7.2970505,-6.0010505,-0.0468875,-0.0125124995,0.1538625,0.1730756759643554,0.2315935492515564,0.310193481445312,15.4211317,73.9811717,0.22287472,0.4240409857509233,0.0,0.1613340299076345,-0.01054591795370324
b0d7ef18-e8c6-4904-8b84-2893df044a1e,5,1767702739103,3.6390002,-7.2970505,-6.0010505,-0.0468875,-0.0125124995,0.1538625,0.1730756759643554,0.2315935492515564,0.310193481445312,15.4211317,73.9811717,0.22287472,0.4240409857509233,0.0,0.1613340299076345,-0.012593567221081084
b0d7ef18-e8c6-4904-8b84-2893df044a1e,5,1767702739113,3.21795,-7.4500504,-5.3500504,-0.0941875,-0.00935,0.1397,-0.4027280807495117,-0.0812280178070068,-0.0985246276855473,15.4211317,73.9811717,0.22287472,0.422486686372028,0.0,0.168744770752311,-0.007332305056570127
b0d7ef18-e8c6-4904-8b84-2893df044a1e,5,1767702739124,3.21795,-7.4500504,-5.3500504,-0.0941875,-0.00935,0.1397,-0.4027280807495117,-0.0812280178070068,-0.0985246276855473,15.4211317,73.9811717,0.22287472,0.422486686372028,0.0,0.168744770752311,-0.009164744083990286
b0d7ef18-e8c6-4904-8b84-2893df044a1e,5,1767702739135,2.8540502,-7.39305,-5.676,-0.0911625,0.0471625,0.148775,-0.0934691429138183,-0.4217860102653503,-0.07176929473877,15.4211317,73.9811717,0.22287472,0.4379392090232461,0.0,0.18074541055722548,0.001503869378090123
b0d7ef18-e8c6-4904-8b84-2893df044a1e,5,1767702739145,2.8540502,-7.39305,-5.676,-0.0911625,0.0471625,0.148775,-0.0934691429138183,-0.4217860102653503,-0.07176929473877,15.4211317,73.9811717,0.22287472,0.4379392090232461,0.0,0.18074541055722548,0.0005777055212920318
b0d7ef18-e8c6-4904-8b84-2893df044a1e,5,1767702739156,2.9880002,-6.9139504,-5.4079504,-0.0856625,0.0851125,0.155375,-0.0375771522521972,-0.0867770910263061,-0.5381150817871099,15.4211317,73.9811717,0.22287472,0.5463608213855754,0.0,0.1967831095076506,0.01570305314206286
b0d7ef18-e8c6-4904-8b84-2893df044a1e,5,1767702739167,2.9880002,-6.9139504,-5.4079504,-0.0856625,0.0851125,0.155375,-0.0375771522521972,-0.0867770910263061,-0.5381150817871099,15.4211317,73.9811717,0.22287472,0.5463608213855754,0.0,0.1967831095076506,0.014124505876674952
b0d7ef18-e8c6-4904-8b84-2893df044a1e,5,1767702739178,2.9310002,-6.60795,-5.04405,-0.0847,0.1117875,0.157575,-0.1459159851074218,0.0230320692062377,-0.9965777969360357,15.4211317,73.9811717,0.22287472,1.007466751941558,0.0,0.210951216591064,0.02512258132667989
b0d7ef18-e8c6-4904-8b84-2893df044a1e,5,1767702739189,2.9310002,-6.60795,-5.04405,-0.0847,0.1117875,0.157575,-0.1459159851074218,0.0230320692062377,-0.9965777969360357,15.4211317,73.9811717,0.22287472,1.007466751941558,0.0,0.210951216591064,0.0192666442720592
b0d7ef18-e8c6-4904-8b84-2893df044a1e,5,1767702739199,2.9310002,-6.60795,-5.04405,-0.0847,0.1117875,0.157575,-0.1459159851074218,0.0230320692062377,-0.9965777969360357,15.4211317,73.9811717,0.22287472,1.007466751941558,0.0,0.210951216591064,0.009566400648501176
b0d7ef18-e8c6-4904-8b84-2893df044a1e,5,1767702739210,3.9460502,-6.8569503,-4.9099503,-0.084975,0.14093749,0.1632125,-0.4538218975067138,0.9346690773963928,-0.5570436096191411,15.4211317,73.9811717,0.22287472,1.1789224664561877,0.0,0.23178103215912665,0.015753760481780534
b0d7ef18-e8c6-4904-8b84-2893df044a1e,5,1767702739221,3.9460502,-6.8569503,-4.9099503,-0.084975,0.14093749,0.1632125,-0.4538218975067138,0.9346690773963928,-0.5570436096191411,15.4211317,73.9811717,0.22287472,1.1789224664561877,0.0,0.23178103215912665,-0.004738880655364223
b0d7ef18-e8c6-4904-8b84-2893df044a1e,5,1767702739232,5.478,-6.6649504,-5.19705,-0.108625,0.1632125,0.128425,-0.1648836135864257,2.3488011360168457,-0.0173841094970708,15.4211317,73.9811717,0.22287472,2.3546455338004377,0.0,0.23437297499125195,-0.029090824843870176
b0d7ef18-e8c6-4904-8b84-2893df044a1e,5,1767702739242,5.478,-6.6649504,-5.19705,-0.108625,0.1632125,0.128425,-0.1648836135864257,2.3488011360168457,-0.0173841094970708,15.4211317,73.9811717,0.22287472,2.3546455338004377,0.0,0.23437297499125195,-0.06269341457727039
b0d7ef18-e8c6-4904-8b84-2893df044a1e,5,1767702739253,5.7259502,-6.2250004,-5.1780005,-0.1689875,0.243375,0.0064625,0.0899300575256347,2.6239047050476074,-0.2467437362670903,15.4211317,73.9811717,0.22287472,2.6370145596497148,0.0,0.2963611473987439,-0.04073889504138951
b0d7ef18-e8c6-4904-8b84-2893df044a1e,5,1767702739264,5.7259502,-6.2250004,-5.1780005,-0.1689875,0.243375,0.0064625,0.0899300575256347,2.6239047050476074,-0.2467437362670903,15.4211317,73.9811717,0.22287472,2.6370145596497148,0.0,0.2963611473987439,-0.08655310827447785
b0d7ef18-e8c6-4904-8b84-2893df044a1e,5,1767702739274,5.01795,-6.7039504,-4.79505,-0.202675,0.4136,-0.21615,-0.4773766994476318,1.8078229427337649,-0.343258438110352,15.4211317,73.9811717,0.22287472,1.9010362071207485,0.0,0.5087857487440072,0.07528467734167985
b0d7ef18-e8c6-4904-8b84-2893df044a1e,5,1767702739285,5.01795,-6.7039504,-4.79505,-0.202675,0.4136,-0.21615,-0.4773766994476318,1.8078229427337649,-0.343258438110352,15.4211317,73.9811717,0.22287472,1.9010362071207485,0.0,0.5087857487440072,0.021182696958253835
b0d7ef18-e8c6-4904-8b84-2893df044a1e,5,1767702739296,5.01795,-6.7039504,-4.79505,-0.202675,0.4136,-0.21615,-0.4773766994476318,1.8078229427337649,-0.343258438110352,15.4211317,73.9811717,0.22287472,1.9010362071207485,0.0,0.5087857487440072,-0.035058792422719344
b0d7ef18-e8c6-4904-8b84-2893df044a1e,5,1767702739307,5.1709504,-6.8569503,-4.833,-0.1926375,0.5633375,-0.3619,-0.5248856544494629,1.7266279458999634,-0.1219831085205083,15.4211317,73.9811717,0.22287472,1.808764465753873,0.0,0.6967280354001122,0.09586612766651964
b0d7ef18-e8c6-4904-8b84-2893df044a1e,5,1767702739318,5.1709504,-6.8569503,-4.833,-0.1926375,0.5633375,-0.3619,-0.5248856544494629,1.7266279458999634,-0.1219831085205083,15.4211317,73.9811717,0.22287472,1.808764465753873,0.0,0.6967280354001122,0.03931959220310193
b0d7ef18-e8c6-4904-8b84-2893df044a1e,5,1767702739328,5.66895,-6.6649504,-4.9669504,-0.119625,0.6595875,-0.383075,-0.2982542514801025,2.0180106163024902,0.0422996902465815,15.4211317,73.9811717,0.22287472,2.0403704834736436,0.0,0.7720830696280355,0.05966833039938064
b0d7ef18-e8c6-4904-8b84-2893df044a1e,5,1767702739339,5.66895,-6.6649504,-4.9669504,-0.119625,0.6595875,-0.383075,-0.2982542514801025,2.0180106163024902,0.0422996902465815,15.4211317,73.9811717,0.22287472,2.0403704834736436,0.0,0.7720830696280355,0.007088359365802403
b0d7ef18-e8c6-4904-8b84-2893df044a1e,5,1767702739350,5.7070503,-6.4159503,-4.8520503,-0.0636625,0.70675,-0.4008125,-0.2021172046661377,1.91409432888031,-0.136705932617188,15.4211317,73.9811717,0.22287472,1.9295846641924144,0.0,0.8149841327059687,0.0005849185475518938
b0d7ef18-e8c6-4904-8b84-2893df044a1e,5,1767702739360,5.7070503,-6.4159503,-4.8520503,-0.0636625,0.70675,-0.4008125,-0.2021172046661377,1.91409432888031,-0.136705932617188,15.4211317,73.9811717,0.22287472,1.9295846641924144,0.0,0.8149841327059687,-0.044946908602679594
b0d7ef18-e8c6-4904-8b84-2893df044a1e,5,1767702739371,5.6119504,-6.30105,-5.3500504,-0.0567875,0.7341125,-0.5033875,0.2827010154724121,1.5082776546478271,0.0624584579467768,15.4211317,73.9811717,0.22287472,1.5358132720575677,0.0,0.8919332699079847,-0.008911051118562522
b0d7ef18-e8c6-4904-8b84-2893df044a1e,5,1767702739382,5.6119504,-6.30105,-5.3500504,-0.0567875,0.7341125,-0.5033875,0.2827010154724121,1.5082776546478271,0.0624584579467768,15.4211317,73.9811717,0.22287472,1.5358132720575677,0.0,0.8919332699079847,-0.0443227617311686
b0d7ef18-e8c6-4904-8b84-2893df044a1e,5,1767702739393,5.6119504,-6.30105,-5.3500504,-0.0567875,0.7341125,-0.5033875,0.2827010154724121,1.5082776546478271,0.0624584579467768,15.4211317,73.9811717,0.22287472,1.5358132720575677,0.0,0.8919332699079847,-0.07316295365403568
b0d7ef18-e8c6-4904-8b84-2893df044a1e,5,1767702739404,5.15205,-6.8569503,-5.1390004,-0.0823625,0.740025,-0.6059625,-0.2068104743957519,0.7404018640518188,0.1589407348632807,15.4211317,73.9811717,0.22287472,0.785001687775309,0.0,0.960005798647852,-0.02611108719835976
b0d7ef18-e8c6-4904-8b84-2893df044a1e,5,1767702739415,5.15205,-6.8569503,-5.1390004,-0.0823625,0.740025,-0.6059625,-0.2068104743957519,0.7404018640518188,0.1589407348632807,15.4211317,73.9811717,0.22287472,0.785001687775309,0.0,0.960005798647852,-0.037962453604571796
b0d7ef18-e8c6-4904-8b84-2893df044a1e,5,1767702739426,6.09,-7.0480504,-5.4079504,-0.090475,0.7302625,-0.65065,-0.0983815193176269,1.1796599626541138,0.8955015563964839,15.4211317,73.9811717,0.22287472,1.4843178865529023,0.0,0.982249696885293,-0.017087990514978814
b0d7ef18-e8c6-4904-8b84-2893df044a1e,5,1767702739437,6.09,-7.0480504,-5.4079504,-0.090475,0.7302625,-0.65065,-0.0983815193176269,1.1796599626541138,0.8955015563964839,15.4211317,73.9811717,0.22287472,1.4843178865529023,0.0,0.982249696885293,-0.006882886972141772
b0d7ef18-e8c6-4904-8b84-2893df044a1e,5,1767702739448,5.5350003,-6.5890503,-5.1010504,-0.082225,0.741125,-0.7052375,-0.0559799671173095,0.7043622732162476,0.1686434173583979,15.4211317,73.9811717,0.22287472,0.7264300178731146,0.0,1.02634650467386,0.05966891046873676
b0d7ef18-e8c6-4904-8b84-2893df044a1e,5,1767702739458,5.5350003,-6.5890503,-5.1010504,-0.082225,0.741125,-0.7052375,-0.0559799671173095,0.7043622732162476,0.1686434173583979,15.4211317,73.9811717,0.22287472,0.7264300178731146,0.0,1.02634650467386,0.09445607750347679
b0d7ef18-e8c6-4904-8b84-2893df044a1e,5,1767702739469,5.037,-6.6649504,-5.3500504,-0.082225,0.6939625,-0.6568375,0.0757918357849121,-0.0794821977615356,0.1098741912841791,15.4211317,73.9811717,0.22287472,0.1553517300933702,0.0,0.9590518252094097,0.07365076964422708
b0d7ef18-e8c6-4904-8b84-2893df044a1e,5,1767702739480,5.037,-6.6649504,-5.3500504,-0.082225,0.6939625,-0.6568375,0.0757918357849121,-0.0794821977615356,0.1098741912841791,15.4211317,73.9811717,0.22287472,0.1553517300933702,0.0,0.9590518252094097,0.13046477806848397
b0d7ef18-e8c6-4904-8b84-2893df044a1e,5,1767702739491,3.8880002,-6.8380504,-6.2689505,-0.098037496,0.5083375,-0.4464625,0.6366086006164551,-1.6317803859710691,0.0949110412597651,15.4211317,73.9811717,0.22287472,1.7541339299414245,0.0,0.683627916658214,-0.079883863283172
b0d7ef18-e8c6-4904-8b84-2893df044a1e,5,1767702739502,3.8880002,-6.8380504,-6.2689505,-0.098037496,0.5083375,-0.4464625,0.6366086006164551,-1.6317803859710691,0.0949110412597651,15.4211317,73.9811717,0.22287472,1.7541339299414245,0.0,0.683627916658214,-0.009141865914916673
b0d7ef18-e8c6-4904-8b84-2893df044a1e,5,1767702739513,3.6769502,-6.6840005,-6.4219503,-0.136675,0.379225,-0.32945,0.8084959983825684,-1.9173712730407717,-0.0577016448974614,15.4211317,73.9811717,0.22287472,2.0816598804575372,0.0,0.520604416759981,-0.09865599516516459
b0d7ef18-e8c6-4904-8b84-2893df044a1e,5,1767702739524,3.6769502,-6.6840005,-6.4219503,-0.136675,0.379225,-0.32945,0.8084959983825684,-1.9173712730407717,-0.0577016448974614,15.4211317,73.9811717,0.22287472,2.0816598804575372,0.0,0.520604416759981,-0.025319210021169408
b0d7ef18-e8c6-4904-8b84-2893df044a1e,5,1767702739536,3.6769502,-6.6840005,-6.4219503,-0.136675,0.379225,-0.32945,0.8084959983825684,-1.9173712730407717,-0.0577016448974614,15.4211317,73.9811717,0.22287472,2.0816598804575372,0.0,0.520604416759981,0.045127218141450626
b0d7ef18-e8c6-4904-8b84-2893df044a1e,5,1767702739547,4.75005,-5.9760003,-5.8099504,-0.1925,0.2024,-0.19085,0.7562146186828613,-0.5951414108276367,-0.265102920532227,15.4211317,73.9811717,0.22287472,0.9981650198570834,0.0,0.33829828923599364,-0.07189462135761103
b0d7ef18-e8c6-4904-8b84-2893df044a1e,5,1767702739558,4.75005,-5.9760003,-5.8099504,-0.1925,0.2024,-0.19085,0.7562146186828613,-0.5951414108276367,-0.265102920532227,15.4211317,73.9811717,0.22287472,0.9981650198570834,0.0,0.33829828923599364,-0.013443218925660604
b0d7ef18-e8c6-4904-8b84-2893df044a1e,5,1767702739569,5.26695,-6.3970504,-5.44605,-0.2360875,0.010725,-0.0204875,0.166752815246582,-0.2545003890991211,0.1011022949218745,15.4211317,73.9811717,0.22287472,0.3206222442107447,0.0,0.23721734957102106,-0.06390713611903623
b0d7ef18-e8c6-4904-8b84-2893df044a1e,5,1767702739580,5.26695,-6.3970504,-5.44605,-0.2360875,0.010725,-0.0204875,0.166752815246582,-0.2545003890991211,0.1011022949218745,15.4211317,73.9811717,0.22287472,0.3206222442107447,0.0,0.23721734957102106,-0.021479840297241627
b0d7ef18-e8c6-4904-8b84-2893df044a1e,5,1767702739591,5.20905,-6.7230005,-4.5270004,-0.23925,-0.0317625,0.007425,-0.7675604820251465,-0.0885759592056274,-0.2063718414306645,15.4211317,73.9811717,0.22287472,0.799740039669989,0.0,0.2414633502858146,0.017189457224722426
b0d7ef18-e8c6-4904-8b84-2893df044a1e,5,1767702739602,5.20905,-6.7230005,-4.5270004,-0.23925,-0.0317625,0.007425,-0.7675604820251465,-0.0885759592056274,-0.2063718414306645,15.4211317,73.9811717,0.22287472,0.799740039669989,0.0,0.2414633502858146,0.04417015550119259
b0d7ef18-e8c6-4904-8b84-2893df044a1e,5,1767702739613,5.439,-6.282,-4.5079503,-0.203775,-0.032449998,0.04455,-0.5122652053833008,0.2909197807312011,-0.3749147033691411,15.4211317,73.9811717,0.22287472,0.6982914823119759,0.0,0.2110970286271221,0.0340837700958487
b0d7ef18-e8c6-4904-8b84-2893df044a1e,5,1767702739624,5.439,-6.282,-4.5079503,-0.203775,-0.032449998,0.04455,-0.5122652053833008,0.2909197807312011,-0.3749147033691411,15.4211317,73.9811717,0.22287472,0.6982914823119759,0.0,0.2110970286271221,0.04839438873945365
b0d7ef18-e8c6-4904-8b84-2893df044a1e,5,1767702739635,6.4729505,-6.1480503,-4.60305,-0.17545,-0.016775,0.0625625,-0.3480110168457031,1.1607825756072998,0.1608156585693354,15.4211317,73.9811717,0.22287472,1.2224522615303168,0.0,0.1870245158562107,0.03322992107207913
b0d7ef18-e8c6-4904-8b84-2893df044a1e,5,1767702739646,6.4729505,-6.1480503,-4.60305,-0.17545,-0.016775,0.0625625,-0.3480110168457031,1.1607825756072998,0.1608156585693354,15.4211317,73.9811717,0.22287472,1.2224522615303168,0.0,0.1870245158562107,0.037044175086299515
b0d7ef18-e8c6-4904-8b84-2893df044a1e,5,1767702739656,6.4540505,-6.2629504,-4.6800003,-0.1419,0.050049998,0.033,-0.3763306140899658,1.056594729423523,0.2658953094482417,15.4211317,73.9811717,0.22287472,1.152700077614934,0.0,0.1540441894386153,0.0028159359583154785
b0d7ef18-e8c6-4904-8b84-2893df044a1e,5,1767702739667,6.4540505,-6.2629504,-4.6800003,-0.1419,0.050049998,0.033,-0.3763306140899658,1.056594729423523,0.2658953094482417,15.4211317,73.9811717,0.22287472,1.152700077614934,0.0,0.1540441894386153,-0.003685046433950502
b0d7ef18-e8c6-4904-8b84-2893df044a1e,5,1767702739678,6.4540505,-6.2629504,-4.6800003,-0.1419,0.050049998,0.033,-0.3763306140899658,1.056594729423523,0.2658953094482417,15.4211317,73.9811717,0.22287472,1.152700077614934,0.0,0.1540441894386153,-0.015736971600778926
b0d7ef18-e8c6-4904-8b84-2893df044a1e,5,1767702739689,6.30105,-6.321,-4.6420503,-0.084425,0.146025,0.006875,-0.4496805667877197,0.9002448320388794,0.1997084045410151,15.4211317,73.9811717,0.22287472,1.0259321695919046,0.0,0.16881394158955,-0.018821342543402834
b0d7ef18-e8c6-4904-8b84-2893df044a1e,5,1767702739700,6.30105,-6.321,-4.6420503,-0.084425,0.146025,0.006875,-0.4496805667877197,0.9002448320388794,0.1997084045410151,15.4211317,73.9811717,0.22287472,1.0259321695919046,0.0,0.16881394158955,-0.042519415315967465
b0d7ef18-e8c6-4904-8b84-2893df044a1e,5,1767702739711,6.05205,-5.91795,-5.2540503,-0.07535,0.2017125,-0.0528,0.2671205997467041,0.579298734664917,0.1322111511230463,15.4211317,73.9811717,0.22287472,0.6514754233850221,0.0,0.22170564980678772,-0.018859502411881654
b0d7ef18-e8c6-4904-8b84-2893df044a1e,5,1767702739722,6.05205,-5.91795,-5.2540503,-0.07535,0.2017125,-0.0528,0.2671205997467041,0.579298734664917,0.1322111511230463,15.4211317,73.9811717,0.22287472,0.6514754233850221,0.0,0.22170564980678772,-0.05286666767296526
b0d7ef18-e8c6-4904-8b84-2893df044a1e,5,1767702739733,6.09,-5.9380503,-5.46495,-0.105875,0.2539625,-0.1662375,0.3987729549407959,0.4600198268890381,0.2817568206787104,15.4211317,73.9811717,0.22287472,0.6708390393546053,0.0,0.3214675309226423,0.009350790324886825
b0d7ef18-e8c6-4904-8b84-2893df044a1e,5,1767702739744,6.09,-5.9380503,-5.46495,-0.105875,0.2539625,-0.1662375,0.3987729549407959,0.4600198268890381,0.2817568206787104,15.4211317,73.9811717,0.22287472,0.6708390393546053,0.0,0.3214675309226423,-0.030053768583540044
b0d7ef18-e8c6-4904-8b84-2893df044a1e,5,1767702739754,5.688,-5.631,-5.46495,-0.1142625,0.3135,-0.2715625,0.55344557762146,0.1784613132476806,-0.1358552551269536,15.4211317,73.9811717,0.22287472,0.5971658882257491,0.0,0.430214319046333,0.03943463232417988
b0d7ef18-e8c6-4904-8b84-2893df044a1e,5,1767702739765,5.688,-5.631,-5.46495,-0.1142625,0.3135,-0.2715625,0.55344557762146,0.1784613132476806,-0.1358552551269536,15.4211317,73.9811717,0.22287472,0.5971658882257491,0.0,0.430214319046333,0.002492602992855975
b0d7ef18-e8c6-4904-8b84-2893df044a1e,5,1767702739776,5.4199505,-5.40105,-5.235,-0.1142625,0.3135,-0.2715625,0.4971239566802978,0.0504617691040039,-0.5524201965332036,15.4211317,73.9811717,0.22287472,0.7448803205779864,0.0,0.430214319046333,-0.0299982949829183
b0d7ef18-e8c6-4904-8b84-2893df044a1e,5,1767702739787,5.4199505,-5.40105,-5.235,-0.1131625,0.378125,-0.3592875,0.4971239566802978,0.0504617691040039,-0.5524201965332036,15.4211317,73.9811717,0.22287472,0.7448803205779864,0.0,0.5337338050821777,0.047373583891139
b0d7ef18-e8c6-4904-8b84-2893df044a1e,5,1767702739798,5.4199505,-5.40105,-5.235,-0.1131625,0.378125,-0.3592875,0.4971239566802978,0.0504617691040039,-0.5524201965332036,15.4211317,73.9811717,0.22287472,0.7448803205779864,0.0,0.5337338050821777,0.029030675243386907
b0d7ef18-e8c6-4904-8b84-2893df044a1e,5,1767702739809,5.3050504,-5.26695,-5.3500504,-0.0862125,0.40205,-0.3513125,0.6399176120758057,-0.1484925746917724,-0.6407132720947271,15.4211317,73.9811717,0.22287472,0.9176372333453588,0.0,0.5408301677167242,0.026474698918365545
b0d7ef18-e8c6-4904-8b84-2893df044a1e,5,1767702739819,5.3050504,-5.26695,-5.3500504,-0.0862125,0.40205,-0.3513125,0.6399176120758057,-0.1484925746917724,-0.6407132720947271,15.4211317,73.9811717,0.22287472,0.9176372333453588,0.0,0.5408301677167242,0.025740248400409064
b0d7ef18-e8c6-4904-8b84-2893df044a1e,5,1767702739830,5.7070503,-6.30105,-5.6950502,-0.0966625,0.372625,-0.33495,0.1919679641723632,-0.5225472450256348,0.4075006866455073,15.4211317,73.9811717,0.22287472,0.689901538024755,0.0,0.5102788767245319,0.0029299864296837156
b0d7ef18-e8c6-4904-8b84-2893df044a1e,5,1767702739841,5.7070503,-6.30105,-5.6950502,-0.0966625,0.372625,-0.33495,0.1919679641723632,-0.5225472450256348,0.4075006866455073,15.4211317,73.9811717,0.22287472,0.689901538024755,0.0,0.5102788767245319,0.018095423146128022
b0d7ef18-e8c6-4904-8b84-2893df044a1e,6,1767702739851,6.56895,-7.0870504,-5.2540503,-0.1379125,0.2754125,-0.307175,-0.6387939453125,-0.0990419387817382,1.1701921844482417,15.4211367,73.98118,0.0,1.3368682652936683,0.0,0.4350038889912365,-0.03612528009647619
b0d7ef18-e8c6-4904-8b84-2893df044a1e,6,1767702739862,6.56895,-7.0870504,-5.2540503,-0.1379125,0.2754125,-0.307175,-0.6387939453125,-0.0990419387817382,1.1701921844482417,15.4211367,73.98118,0.0,1.3368682652936683,0.0,0.4350038889912365,-0.011031935302807858
b0d7ef18-e8c6-4904-8b84-2893df044a1e,6,1767702739873,6.492,-6.531,-5.2930503,-0.133375,0.245575,-0.2594625,-0.2611656188964844,-0.0390920639038085,0.8082270050048823,15.4211367,73.98118,0.0,0.8502744036915407,0.0,0.3813354955367386,-0.037537704662686265
b0d7ef18-e8c6-4904-8b84-2893df044a1e,6,1767702739883,6.492,-6.531,-5.2930503,-0.133375,0.245575,-0.2594625,-0.2611656188964844,-0.0390920639038085,0.8082270050048823,15.4211367,73.98118,0.0,0.8502744036915407,0.0,0.3813354955367386,-0.010201145101870859
b0d7ef18-e8c6-4904-8b84-2893df044a1e,6,1767702739894,6.492,-6.531,-5.2930503,-0.133375,0.245575,-0.2594625,-0.2611656188964844,-0.0390920639038085,0.8082270050048823,15.4211367,73.98118,0.0,0.8502744036915407,0.0,0.3813354955367386,0.015660995243660825
b0d7ef18-e8c6-4904-8b84-2893df044a1e,6,1767702739905,6.97095,-6.16695,-5.3500504,-0.1783375,0.1665125,-0.208725,0.0197441577911376,0.3771603107452392,0.9187406921386714,15.4211367,73.98118,0.0,0.993339917228625,0.0,0.32108690753050023,-0.021468251015015205
b0d7ef18-e8c6-4904-8b84-2893df044a1e,6,1767702739916,6.97095,-6.16695,-5.3500504,-0.1783375,0.1665125,-0.208725,0.0197441577911376,0.3771603107452392,0.9187406921386714,15.4211367,73.98118,0.0,0.993339917228625,0.0,0.32108690753050023,-0.0018983500090381704
b0d7ef18-e8c6-4904-8b84-2893df044a1e,6,1767702739926,6.2629504,-6.0720005,-5.8290005,-0.227425,0.1159125,-0.1557875,0.3596127033233642,-0.4129555225372314,0.6671738052368159,15.4211367,73.98118,0.0,0.8631190221398835,0.0,0.2990444506047554,-0.008239755657612147
b0d7ef18-e8c6-4904-8b84-2893df044a1e,6,1767702739937,6.2629504,-6.0720005,-5.8290005,-0.227425,0.1159125,-0.1557875,0.3596127033233642,-0.4129555225372314,0.6671738052368159,15.4211367,73.98118,0.0,0.8631190221398835,0.0,0.2990444506047554,0.0037308539722879777
b0d7ef18-e8c6-4904-8b84-2893df044a1e,6,1767702739947,6.1860003,-5.84205,-6.0390005,-0.257675,0.0727375,-0.1172875,0.6043984889984131,-0.5068929195404053,0.594011726379394,15.4211367,73.98118,0.0,0.9874653900061452,0.0,0.29230721371102014,0.005752662276122971
b0d7ef18-e8c6-4904-8b84-2893df044a1e,6,1767702739958,6.1860003,-5.84205,-6.0390005,-0.257675,0.0727375,-0.1172875,0.6043984889984131,-0.5068929195404053,0.594011726379394,15.4211367,73.98118,0.0,0.9874653900061452,0.0,0.29230721371102014,0.0120856422427217
b0d7ef18-e8c6-4904-8b84-2893df044a1e,6,1767702739969,5.9560504,-5.478,-6.09705,-0.2607,0.0177375,-0.0820875,0.8039577007293701,-0.5671145915985107,0.2741016769409174,15.4211367,73.98118,0.0,1.0213220226098252,0.0,0.2738931663304143,-0.0015053140540491224
b0d7ef18-e8c6-4904-8b84-2893df044a1e,6,1767702739979,5.9560504,-5.478,-6.09705,-0.2607,0.0177375,-0.0820875,0.8039577007293701,-0.5671145915985107,0.2741016769409174,15.4211367,73.98118,0.0,1.0213220226098252,0.0,0.2738931663304143,0.0027124276232028486
b0d7ef18-e8c6-4904-8b84-2893df044a1e,6,1767702739990,5.9560504,-5.478,-6.09705,-0.2607,0.0177375,-0.0820875,0.8039577007293701,-0.5671145915985107,0.2741016769409174,15.4211367,73.98118,0.0,1.0213220226098252,0.0,0.2738931663304143,0.007084503146463131
b0d7ef18-e8c6-4904-8b84-2893df044a1e,6,1767702740001,6.5880003,-5.88,-6.25005,-0.2517625,-0.0099,-0.06655,0.5841727256774902,-0.3313295841217041,0.987603607177734,15.4211367,73.98118,0.0,1.1943190326082065,0.0,0.26059790656536364,-0.0011798134815823081
b0d7ef18-e8c6-4904-8b84-2893df044a1e,6,1767702740012,6.5880003,-5.88,-6.25005,-0.2517625,-0.0099,-0.06655,0.5841727256774902,-0.3313295841217041,0.987603607177734,15.4211367,73.98118,0.0,1.1943190326082065,0.0,0.26059790656536364,0.004683139854450919
b0d7ef18-e8c6-4904-8b84-2893df044a1e,6,1767702740022,6.5500503,-5.9950504,-5.9050503,-0.24475,-0.027775,-0.071225,0.1943891048431396,-0.2576081752777099,0.8487638854980464,15.4211367,73.98118,0.0,0.9080469312636706,0.0,0.2564118050129518,0.0069991868646732255
b0d7ef18-e8c6-4904-8b84-2893df044a1e,6,1767702740033,6.5500503,-5.9950504,-5.9050503,-0.24475,-0.027775,-0.071225,0.1943891048431396,-0.2576081752777099,0.8487638854980464,15.4211367,73.98118,0.0,0.9080469312636706,0.0,0.2564118050129518,0.013592432383936787
b0d7ef18-e8c6-4904-8b84-2893df044a1e,6,1767702740044,6.4540505,-5.3250003,-6.078,-0.2096875,0.004675,-0.1049125,0.7152166366577148,-0.1288180351257324,0.5062202835083003,15.4211367,73.98118,0.0,0.8856567613702568,0.0,0.2345151081220568,-0.002468212556231236
b0d7ef18-e8c6-4904-8b84-2893df044a1e,6,1767702740054,6.4540505,-5.3250003,-6.078,-0.2096875,0.004675,-0.1049125,0.7152166366577148,-0.1288180351257324,0.5062202835083003,15.4211367,73.98118,0.0,0.8856567613702568,0.0,0.2345151081220568,0.0015563815140551566
b0d7ef18-e8c6-4904-8b84-2893df044a1e,6,1767702740065,6.4729505,-5.229,-6.288,-0.1975875,0.0383625,-0.1398375,0.8602313995361328,-0.1880226135253906,0.5825523757934565,15.4211367,73.98118,0.0,1.055801986400581,0.0,0.24508575635632113,0.013203756491319132
b0d7ef18-e8c6-4904-8b84-2893df044a1e,6,1767702740076,6.4729505,-5.229,-6.288,-0.1975875,0.0383625,-0.1398375,0.8602313995361328,-0.1880226135253906,0.5825523757934565,15.4211367,73.98118,0.0,1.055801986400581,0.0,0.24508575635632113,0.01025435767267685
b0d7ef18-e8c6-4904-8b84-2893df044a1e,6,1767702740086,6.4729505,-5.229,-6.288,-0.1975875,0.0383625,-0.1398375,0.8602313995361328,-0.1880226135253906,0.5825523757934565,15.4211367,73.98118,0.0,1.055801986400581,0.0,0.24508575635632113,0.002399698190269647
b0d7ef18-e8c6-4904-8b84-2893df044a1e,6,1767702740097,5.88,-5.44005,-5.6950502,-0.1945625,0.056375,-0.1557875,0.2057743072509765,-0.46071457862854,0.0056795501708979,15.4211367,73.98118,0.0,0.504611975458011,0.0,0.2555434448141842,-0.0004580020367386294
b0d7ef18-e8c6-4904-8b84-2893df044a1e,6,1767702740108,5.88,-5.44005,-5.6950502,-0.1945625,0.056375,-0.1557875,0.2057743072509765,-0.46071457862854,0.0056795501708979,15.4211367,73.98118,0.0,0.504611975458011,0.0,0.2555434448141842,-0.01937450540989489
b0d7ef18-e8c6-4904-8b84-2893df044a1e,6,1767702740119,5.7259502,-4.8840003,-6.09705,-0.2123,0.0209,-0.1375,0.7942445278167725,-0.5417160987854004,-0.1720681762695317,15.4211367,73.98118,0.0,0.9766719812377564,0.0,0.25379982269497353,-0.045316936502383116
b0d7ef18-e8c6-4904-8b84-2893df044a1e,6,1767702740129,5.7259502,-4.8840003,-6.09705,-0.2123,0.0209,-0.1375,0.7942445278167725,-0.5417160987854004,-0.1720681762695317,15.4211367,73.98118,0.0,0.9766719812377564,0.0,0.25379982269497353,-0.07403248850089028
b0d7ef18-e8c6-4904-8b84-2893df044a1e,6,1767702740140,5.9560504,-4.21395,-6.4219503,-0.286,-0.03025,-0.2006125,1.393385887145996,-0.2450013160705566,-0.1937728500366216,15.4211367,73.98118,0.0,1.4279698150819766,0.0,0.35065144753194727,-0.009271795200460902
b0d7ef18-e8c6-4904-8b84-2893df044a1e,6,1767702740151,5.9560504,-4.21395,-6.4219503,-0.286,-0.03025,-0.2006125,1.393385887145996,-0.2450013160705566,-0.1937728500366216,15.4211367,73.98118,0.0,1.4279698150819766,0.0,0.35065144753194727,-0.04334340348589884
b0d7ef18-e8c6-4904-8b84-2893df044a1e,6,1767702740161,6.282,-4.09905,-6.2310004,-0.4087875,-0.107525,-0.3001625,1.212963581085205,0.1196050643920898,-0.1350045776367192,15.4211367,73.98118,0.0,1.2263002309590216,0.0,0.5184268243325185,0.08986991209637993
b0d7ef18-e8c6-4904-8b84-2893df044a1e,6,1767702740172,6.282,-4.09905,-6.2310004,-0.4087875,-0.107525,-0.3001625,1.212963581085205,0.1196050643920898,-0.1350045776367192,15.4211367,73.98118,0.0,1.2263002309590216,0.0,0.5184268243325185,0.05623335466723887
b0d7ef18-e8c6-4904-8b84-2893df044a1e,6,1767702740183,6.282,-4.09905,-6.2310004,-0.4087875,-0.107525,-0.3001625,1.212963581085205,0.1196050643920898,-0.1350045776367192,15.4211367,73.98118,0.0,1.2263002309590216,0.0,0.5184268243325185,0.024708832733123062
b0d7ef18-e8c6-4904-8b84-2893df044a1e,6,1767702740193,6.2430005,-4.176,-5.96295,-0.441925,-0.1648625,-0.3111625,0.8189334869384766,0.1478900909423828,-0.2560315704345708,15.4211367,73.98118,0.0,0.8706754275201241,0.0,0.5650658819443092,0.04277651835922115
b0d7ef18-e8c6-4904-8b84-2893df044a1e,6,1767702740204,6.2430005,-4.176,-5.96295,-0.441925,-0.1648625,-0.3111625,0.8189334869384766,0.1478900909423828,-0.2560315704345708,15.4211367,73.98118,0.0,0.8706754275201241,0.0,0.5650658819443092,0.01759456372796541
b0d7ef18-e8c6-4904-8b84-2893df044a1e,6,1767702740214,6.4159503,-4.13805,-5.7910504,-0.44935,-0.16293749,-0.3265625,0.5859708786010742,0.3543219566345215,-0.2520042037963872,15.4211367,73.98118,0.0,0.7296657030811313,0.0,0.5788843706248685,0.009655879936929707
b0d7ef18-e8c6-4904-8b84-2893df044a1e,6,1767702740225,6.4159503,-4.13805,-5.7910504,-0.44935,-0.16293749,-0.3265625,0.5859708786010742,0.3543219566345215,-0.2520042037963872,15.4211367,73.98118,0.0,0.7296657030811313,0.0,0.5788843706248685,-0.008979534303544841
b0d7ef18-e8c6-4904-8b84-2893df044a1e,6,1767702740236,6.2629504,-3.525,-5.5420504,-0.4376625,-0.1232,-0.337975,0.750225305557251,0.5895485877990723,-0.784807739257813,15.4211367,73.98118,0.0,1.235446775087179,0.0,0.566527849740196,-0.03738506228934819
b0d7ef18-e8c6-4904-8b84-2893df044a1e,6,1767702740246,6.2629504,-3.525,-5.5420504,-0.4376625,-0.1232,-0.337975,0.750225305557251,0.5895485877990723,-0.784807739257813,15.4211367,73.98118,0.0,1.235446775087179,0.0,0.566527849740196,-0.0514876340375515
b0d7ef18-e8c6-4904-8b84-2893df044a1e,6,1767702740257,6.3580503,-3.2569501,-5.5420504,-0.4607625,-0.094875,-0.3870625,0.8235211372375488,0.7412521839141846,-0.8367496109008794,15.4211367,73.98118,0.0,1.3884494139065156,0.0,0.6091967875305154,-0.021594341438945737
b0d7ef18-e8c6-4904-8b84-2893df044a1e,6,1767702740268,6.3580503,-3.2569501,-5.5420504,-0.4607625,-0.094875,-0.3870625,0.8235211372375488,0.7412521839141846,-0.8367496109008794,15.4211367,73.98118,0.0,1.3884494139065156,0.0,0.6091967875305154,-0.03354150053647105
b0d7ef18-e8c6-4904-8b84-2893df044a1e,6,1767702740278,6.3580503,-3.2569501,-5.5420504,-0.4607625,-0.094875,-0.3870625,0.8235211372375488,0.7412521839141846,-0.8367496109008794,15.4211367,73.98118,0.0,1.3884494139065156,0.0,0.6091967875305154,-0.04497680466087625
b0d7ef18-e8c6-4904-8b84-2893df044a1e,6,1767702740289,6.741,-3.1230001,-5.65605,-0.5163125,-0.049225,-0.477675,0.8460693359375,0.9839694499969482,-0.5633197402954107,15.4211367,73.98118,0.0,1.4146937228769725,0.0,0.705106448634708,0.039889057308559225
b0d7ef18-e8c6-4904-8b84-2893df044a1e,6,1767702740300,6.741,-3.1230001,-5.65605,-0.5163125,-0.049225,-0.477675,0.8460693359375,0.9839694499969482,-0.5633197402954107,15.4211367,73.98118,0.0,1.4146937228769725,0.0,0.705106448634708,0.0292839807731882
b0d7ef18-e8c6-4904-8b84-2893df044a1e,6,1767702740311,7.1239505,-3.39105,-5.84805,-0.51713747,0.0006875,-0.49335,0.5497417449951172,0.9561662673950196,-0.0512538528442387,15.4211367,73.98118,0.0,1.104127200337796,0.0,0.7147208252417518,0.028885969315920173
