session_id,window_id,timestamp,accel_x,accel_y,accel_z,gyro_x,gyro_y,gyro_z,linear_accel_x,linear_accel_y,linear_accel_z,latitude,longitude,speed,vibration_intensity,anomaly_score,raw_magnitude,vibration_only
9ea5e253-75d7-4e6d-9374-e1af9a10a4f3,3,1767702274587,2.739,-7.4890504,-5.4079504,-0.0270875,0.0862125,-0.0771375,-0.2293248176574707,0.274243950843811,-0.181597290039063,15.4211667,73.9812217,0.1899325,0.4009703135115945,0.0,0.11881296948881465,0.005449443527558748
9ea5e253-75d7-4e6d-9374-e1af9a10a4f3,3,1767702274597,2.394,-7.6800003,-5.31195,-0.0191125,0.0818125,-0.0468875,-0.473642349243164,-0.0668126344680786,-0.1818299865722661,15.4211667,73.9812217,0.1899325,0.5117256561264238,0.0,0.09621335909711291,-0.007987168276869743
9ea5e253-75d7-4e6d-9374-e1af9a10a4f3,3,1767702274609,2.394,-7.6800003,-5.31195,-0.0191125,0.0818125,-0.0468875,-0.473642349243164,-0.0668126344680786,-0.1818299865722661,15.4211667,73.9812217,0.1899325,0.5117256561264238,0.0,0.09621335909711291,-0.0010890108807688889
9ea5e253-75d7-4e6d-9374-e1af9a10a4f3,3,1767702274619,2.35605,-7.9870505,-5.235,-0.006325,0.0463375,0.03135,-0.7105593681335449,-0.125902771949768,-0.00039058685302784113,15.4211667,73.9812217,0.1899325,0.7216275190048309,0.0,0.0563026822740267,-0.036705545279112184
9ea5e253-75d7-4e6d-9374-e1af9a10a4f3,3,1767702274630,2.35605,-7.9870505,-5.235,-0.006325,0.0463375,0.03135,-0.7105593681335449,-0.125902771949768,-0.00039058685302784113,15.4211667,73.9812217,0.1899325,0.7216275190048309,0.0,0.0563026822740267,-0.035159972741663055
9ea5e253-75d7-4e6d-9374-e1af9a10a4f3,3,1767702274641,2.2800002,-6.8760004,-5.06295,0.00715,0.0116875,0.0983125,-0.1227514743804931,-0.0315601825714111,-0.9728513336181646,15.4211667,73.9812217,0.1899325,0.9810727225385318,0.0,0.0992626204192696,0.006628915831178987
9ea5e253-75d7-4e6d-9374-e1af9a10a4f3,3,1767702274652,2.2800002,-6.8760004,-5.06295,0.00715,0.0116875,0.0983125,-0.1227514743804931,-0.0315601825714111,-0.9728513336181646,15.4211667,73.9812217,0.1899325,0.9810727225385318,0.0,0.0992626204192696,0.0029101709564296136
9ea5e253-75d7-4e6d-9374-e1af9a10a4f3,3,1767702274662,2.4520502,-7.221,-5.1780005,0.00825,-0.010725,0.1373625,-0.2179205417633056,0.0762804746627807,-0.5951314544677739,15.4211667,73.9812217,0.1899325,0.6383490592411959,0.0,0.13802733255138275,0.0356614737583132
9ea5e253-75d7-4e6d-9374-e1af9a10a4f3,3,1767702274673,2.4520502,-7.221,-5.1780005,0.00825,-0.010725,0.1373625,-0.2179205417633056,0.0762804746627807,-0.5951314544677739,15.4211667,73.9812217,0.1899325,0.6383490592411959,0.0,0.13802733255138275,0.027634997426808132
9ea5e253-75d7-4e6d-9374-e1af9a10a4f3,3,1767702274684,2.4520502,-7.221,-5.1780005,0.00825,-0.010725,0.1373625,-0.2179205417633056,0.0762804746627807,-0.5951314544677739,15.4211667,73.9812217,0.1899325,0.6383490592411959,0.0,0.13802733255138275,0.01785847317458868
9ea5e253-75d7-4e6d-9374-e1af9a10a4f3,3,1767702274694,2.4709501,-7.4119506,-5.3689504,0.0345125,-0.026124999,0.1375,-0.1768422126770019,0.0431607961654663,-0.3318601226806645,15.4211667,73.9812217,0.1899325,0.3785064907445586,0.0,0.14415227444962497,0.012671435396559742
9ea5e253-75d7-4e6d-9374-e1af9a10a4f3,3,1767702274705,2.4709501,-7.4119506,-5.3689504,0.0345125,-0.026124999,0.1375,-0.1768422126770019,0.0431607961654663,-0.3318601226806645,15.4211667,73.9812217,0.1899325,0.3785064907445586,0.0,0.14415227444962497,-1.7639442896164793e-05
9ea5e253-75d7-4e6d-9374-e1af9a10a4f3,3,1767702274715,2.26005,-7.5840006,-5.484,0.0518375,-0.0419375,0.132275,-0.2053999900817871,-0.1720278263092041,-0.1856895065307622,15.4211667,73.9812217,0.1899325,0.3259805543063971,0.0,0.14813019927583976,-0.009989858879720091
9ea5e253-75d7-4e6d-9374-e1af9a10a4f3,3,1767702274726,2.26005,-7.5840006,-5.484,0.0518375,-0.0419375,0.132275,-0.2053999900817871,-0.1720278263092041,-0.1856895065307622,15.4211667,73.9812217,0.1899325,0.3259805543063971,0.0,0.14813019927583976,-0.025096863829738345
9ea5e253-75d7-4e6d-9374-e1af9a10a4f3,3,1767702274736,2.1649501,-7.79505,-5.3689504,0.0627,-0.1023,0.142725,-0.4029541015625,-0.2109172344207763,-0.1111026382446294,15.4211667,73.9812217,0.1899325,0.4681900084011482,0.0,0.18645912588285937,-0.002900695489192929
9ea5e253-75d7-4e6d-9374-e1af9a10a4f3,3,1767702274747,2.1649501,-7.79505,-5.3689504,0.0627,-0.1023,0.142725,-0.4029541015625,-0.2109172344207763,-0.1111026382446294,15.4211667,73.9812217,0.1899325,0.4681900084011482,0.0,0.18645912588285937,-0.019864033449823647
9ea5e253-75d7-4e6d-9374-e1af9a10a4f3,3,1767702274758,2.05005,-7.4890504,-5.2930503,0.072875,-0.15015,0.1643125,-0.2454457283020019,-0.22693932056427,-0.4188733673095708,15.4211667,73.9812217,0.1899325,0.5359104016541676,0.0,0.23421013167933194,0.010378919418140481
9ea5e253-75d7-4e6d-9374-e1af9a10a4f3,3,1767702274768,2.05005,-7.4890504,-5.2930503,0.072875,-0.15015,0.1643125,-0.2454457283020019,-0.22693932056427,-0.4188733673095708,15.4211667,73.9812217,0.1899325,0.5359104016541676,0.0,0.23421013167933194,-0.007287780113084427
9ea5e253-75d7-4e6d-9374-e1af9a10a4f3,3,1767702274779,2.05005,-7.4890504,-5.2930503,0.072875,-0.15015,0.1643125,-0.2454457283020019,-0.22693932056427,-0.4188733673095708,15.4211667,73.9812217,0.1899325,0.5359104016541676,0.0,0.23421013167933194,-0.02463757997055097
9ea5e253-75d7-4e6d-9374-e1af9a10a4f3,3,1767702274789,1.9540501,-7.872,-5.1780005,0.0785125,-0.1934625,0.188925,-0.5477309226989746,-0.264488935470581,-0.2064347839355473,15.4211667,73.9812217,0.1899325,0.642323034528225,0.0,0.2815752247402104,0.006229335973629364
9ea5e253-75d7-4e6d-9374-e1af9a10a4f3,3,1767702274799,1.9540501,-7.872,-5.1780005,0.0785125,-0.1934625,0.188925,-0.5477309226989746,-0.264488935470581,-0.2064347839355473,15.4211667,73.9812217,0.1899325,0.642323034528225,0.0,0.2815752247402104,-0.008868960560271475
9ea5e253-75d7-4e6d-9374-e1af9a10a4f3,3,1767702274810,1.8970501,-7.9669504,-5.0820003,0.10175,-0.2261875,0.2149125,-0.6389970779418945,-0.2353790998458862,-0.1957336044311528,15.4211667,73.9812217,0.1899325,0.7085423277166653,0.0,0.32817865608917957,0.024543981044036035
9ea5e253-75d7-4e6d-9374-e1af9a10a4f3,3,1767702274820,1.8970501,-7.9669504,-5.0820003,0.10175,-0.2261875,0.2149125,-0.6389970779418945,-0.2353790998458862,-0.1957336044311528,15.4211667,73.9812217,0.1899325,0.7085423277166653,0.0,0.32817865608917957,0.013675664164835602
9ea5e253-75d7-4e6d-9374-e1af9a10a4f3,4,1767702274831,1.8970501,-7.9669504,-5.0820003,0.10175,-0.2261875,0.2149125,-0.6389970779418945,-0.2353790998458862,-0.1957336044311528,15.4211667,73.9812233,0.11529778,0.7085423277166653,0.0,0.32817865608917957,0.005406827721651067
9ea5e253-75d7-4e6d-9374-e1af9a10a4f3,4,1767702274841,1.9540501,-7.7380505,-5.1199503,0.1258125,-0.2217875,0.2330625,-0.4089035987854004,-0.1086244583129882,-0.3373742675781255,15.4211667,73.9812233,0.11529778,0.541131058494445,0.0,0.34545131237086074,0.01712425905049507
9ea5e253-75d7-4e6d-9374-e1af9a10a4f3,4,1767702274852,1.9540501,-7.7380505,-5.1199503,0.1258125,-0.2217875,0.2330625,-0.4089035987854004,-0.1086244583129882,-0.3373742675781255,15.4211667,73.9812233,0.11529778,0.541131058494445,0.0,0.34545131237086074,0.014229596517161758
9ea5e253-75d7-4e6d-9374-e1af9a10a4f3,4,1767702274863,1.8769501,-7.6420503,-5.06295,0.148775,-0.2079,0.2052875,-0.3608105182647705,-0.0921618938446044,-0.4602056121826177,15.4211667,73.9812233,0.11529778,0.5920027451388163,0.0,0.3278709628516225,-0.00378609649946702
9ea5e253-75d7-4e6d-9374-e1af9a10a4f3,4,1767702274873,1.8769501,-7.6420503,-5.06295,0.148775,-0.2079,0.2052875,-0.3608105182647705,-0.0921618938446044,-0.4602056121826177,15.4211667,73.9812233,0.11529778,0.5920027451388163,0.0,0.3278709628516225,-0.0020727857717139763
9ea5e253-75d7-4e6d-9374-e1af9a10a4f3,4,1767702274884,1.8970501,-7.5840006,-5.1589503,0.144925,-0.21779999,0.1733875,-0.2011566162109375,-0.0365799665451049,-0.445766983032227,15.4211667,73.9812233,0.11529778,0.4904184757526262,0.0,0.3138523799897813,-0.01259766754785489
9ea5e253-75d7-4e6d-9374-e1af9a10a4f3,4,1767702274894,1.8970501,-7.5840006,-5.1589503,0.144925,-0.21779999,0.1733875,-0.2011566162109375,-0.0365799665451049,-0.445766983032227,15.4211667,73.9812233,0.11529778,0.4904184757526262,0.0,0.3138523799897813,-0.007693632936245435
9ea5e253-75d7-4e6d-9374-e1af9a10a4f3,4,1767702274905,1.9159501,-7.8139505,-5.21595,0.13213749,-0.2112,0.1595,-0.2458329200744629,0.0064368247985839,-0.2248883819580083,15.4211667,73.9812233,0.11529778,0.3332417165444866,0.0,0.29581414141906753,-0.019739305146791536
9ea5e253-75d7-4e6d-9374-e1af9a10a4f3,4,1767702274915,1.9159501,-7.8139505,-5.21595,0.13213749,-0.2112,0.1595,-0.2458329200744629,0.0064368247985839,-0.2248883819580083,15.4211667,73.9812233,0.11529778,0.3332417165444866,0.0,0.29581414141906753,-0.012896102498186577
9ea5e253-75d7-4e6d-9374-e1af9a10a4f3,4,1767702274926,2.1070502,-7.9870505,-5.274,0.1304875,-0.1967625,0.1711875,-0.2207527160644531,0.2087527513504028,-0.0143170928955083,15.4211667,73.9812233,0.11529778,0.3041618845206854,0.0,0.29162926673903977,-0.009525844164977199
9ea5e253-75d7-4e6d-9374-e1af9a10a4f3,4,1767702274937,2.1070502,-7.9870505,-5.274,0.1304875,-0.1967625,0.1711875,-0.2207527160644531,0.2087527513504028,-0.0143170928955083,15.4211667,73.9812233,0.11529778,0.3041618845206854,0.0,0.29162926673903977,-0.0013056262258561275
9ea5e253-75d7-4e6d-9374-e1af9a10a4f3,4,1767702274948,2.1070502,-7.9870505,-5.274,0.1304875,-0.1967625,0.1711875,-0.2207527160644531,0.2087527513504028,-0.0143170928955083,15.4211667,73.9812233,0.11529778,0.3041618845206854,0.0,0.29162926673903977,0.007596592822051522
9ea5e253-75d7-4e6d-9374-e1af9a10a4f3,4,1767702274959,2.1649501,-7.8910503,-5.1390004,0.1370875,-0.16665,0.186725,-0.213472843170166,0.3476384878158569,-0.1560569381713872,15.4211667,73.9812233,0.11529778,0.4367801975061119,0.0,0.2853619294531946,0.01095080522839166
9ea5e253-75d7-4e6d-9374-e1af9a10a4f3,4,1767702274970,2.1649501,-7.8910503,-5.1390004,0.1370875,-0.16665,0.186725,-0.213472843170166,0.3476384878158569,-0.1560569381713872,15.4211667,73.9812233,0.11529778,0.4367801975061119,0.0,0.2853619294531946,0.02129894439962526
9ea5e253-75d7-4e6d-9374-e1af9a10a4f3,4,1767702274981,2.31795,-7.7179503,-4.9669504,0.12925,-0.085525,0.1912625,-0.1785545349121093,0.5871074199676514,-0.3636422729492192,15.4211667,73.9812233,0.11529778,0.7133109750974159,0.0,0.2461735810992926,-0.006885907020892425
9ea5e253-75d7-4e6d-9374-e1af9a10a4f3,4,1767702274992,2.31795,-7.7179503,-4.9669504,0.12925,-0.085525,0.1912625,-0.1785545349121093,0.5871074199676514,-0.3636422729492192,15.4211667,73.9812233,0.11529778,0.7133109750974159,0.0,0.2461735810992926,0.004585582182927789
9ea5e253-75d7-4e6d-9374-e1af9a10a4f3,4,1767702275002,2.3370001,-7.7760005,-4.9290004,0.1238875,-0.016224999,0.183425,-0.1951305866241455,0.6421374082565308,-0.3351674652099614,15.4211667,73.9812233,0.11529778,0.7501690653805769,0.0,0.22193713946475926,-0.008034818835080268
9ea5e253-75d7-4e6d-9374-e1af9a10a4f3,4,1767702275013,2.3370001,-7.7760005,-4.9290004,0.1238875,-0.016224999,0.183425,-0.1951305866241455,0.6421374082565308,-0.3351674652099614,15.4211667,73.9812233,0.11529778,0.7501690653805769,0.0,0.22193713946475926,0.0032683266983396042
9ea5e253-75d7-4e6d-9374-e1af9a10a4f3,4,1767702275024,2.4520502,-8.082001,-5.1589503,0.130625,0.0433125,0.1771,-0.1265349388122558,0.6804765462875366,0.0625385665893549,15.4211667,73.9812233,0.11529778,0.6949607852956068,0.0,0.2242839122212068,0.016039304909175114
9ea5e253-75d7-4e6d-9374-e1af9a10a4f3,4,1767702275035,2.4520502,-8.082001,-5.1589503,0.130625,0.0433125,0.1771,-0.1265349388122558,0.6804765462875366,0.0625385665893549,15.4211667,73.9812233,0.11529778,0.6949607852956068,0.0,0.2242839122212068,0.024956945585767394
9ea5e253-75d7-4e6d-9374-e1af9a10a4f3,4,1767702275045,2.56695,-7.833,-4.9290004,0.109037496,0.088275,0.11825,-0.0986487865447998,0.8549059629440308,-0.2444587326049809,15.4211667,73.9812233,0.11529778,0.8946261009555084,0.0,0.1834794638616268,-0.009061687136064396
9ea5e253-75d7-4e6d-9374-e1af9a10a4f3,4,1767702275056,2.56695,-7.833,-4.9290004,0.109037496,0.088275,0.11825,-0.0986487865447998,0.8549059629440308,-0.2444587326049809,15.4211667,73.9812233,0.11529778,0.8946261009555084,0.0,0.1834794638616268,-0.004957098159271044
9ea5e253-75d7-4e6d-9374-e1af9a10a4f3,4,1767702275067,2.56695,-7.833,-4.9290004,0.109037496,0.088275,0.11825,-0.0986487865447998,0.8549059629440308,-0.2444587326049809,15.4211667,73.9812233,0.11529778,0.8946261009555084,0.0,0.1834794638616268,-0.003933676112192777
9ea5e253-75d7-4e6d-9374-e1af9a10a4f3,4,1767702275078,2.56695,-7.7380505,-4.986,0.0917125,0.1329625,0.0521125,0.0349977016448974,0.8317010402679443,-0.2898164367675786,15.4211667,73.9812233,0.11529778,0.8814448516633708,0.0,0.16972307361920477,-0.019934966707998842
9ea5e253-75d7-4e6d-9374-e1af9a10a4f3,4,1767702275089,2.56695,-7.7380505,-4.986,0.0917125,0.1329625,0.0521125,0.0349977016448974,0.8317010402679443,-0.2898164367675786,15.4211667,73.9812233,0.11529778,0.8814448516633708,0.0,0.16972307361920477,-0.025379294299722296
9ea5e253-75d7-4e6d-9374-e1af9a10a4f3,4,1767702275099,2.5480502,-7.7380505,-5.04405,0.0705375,0.180675,0.0122375,0.1035115718841552,0.76485276222229,-0.2592549896240239,15.4211667,73.9812233,0.11529778,0.8142036250459391,0.0,0.1943418404191439,-0.009063596014857948
9ea5e253-75d7-4e6d-9374-e1af9a10a4f3,4,1767702275110,2.5480502,-7.7380505,-5.04405,0.0705375,0.180675,0.0122375,0.1035115718841552,0.76485276222229,-0.2592549896240239,15.4211667,73.9812233,0.11529778,0.8142036250459391,0.0,0.1943418404191439,-0.019628416330037826
9ea5e253-75d7-4e6d-9374-e1af9a10a4f3,4,1767702275121,2.56695,-7.7380505,-5.0820003,0.0386375,0.245025,-0.0114124995,0.1556169986724853,0.7289440631866455,-0.2320142364501958,15.4211667,73.9812233,0.11529778,0.7806450559930908,0.0,0.24831502607793893,0.02232567052552983
9ea5e253-75d7-4e6d-9374-e1af9a10a4f3,4,1767702275131,2.56695,-7.7380505,-5.0820003,0.0386375,0.245025,-0.0114124995,0.1556169986724853,0.7289440631866455,-0.2320142364501958,15.4211667,73.9812233,0.11529778,0.7806450559930908,0.0,0.24831502607793893,0.009799569301332398
9ea5e253-75d7-4e6d-9374-e1af9a10a4f3,4,1767702275142,2.49,-7.5460505,-5.1010504,0.0273625,0.264,-0.0284625,0.2727000713348388,0.6085412502288818,-0.3909230804443364,15.4211667,73.9812233,0.11529778,0.7729868284519769,0.0,0.26693598542066227,0.016388038535378315
9ea5e253-75d7-4e6d-9374-e1af9a10a4f3,4,1767702275153,2.49,-7.5460505,-5.1010504,0.0273625,0.264,-0.0284625,0.2727000713348388,0.6085412502288818,-0.3909230804443364,15.4211667,73.9812233,0.11529778,0.7729868284519769,0.0,0.26693598542066227,0.005811887909364368
9ea5e253-75d7-4e6d-9374-e1af9a10a4f3,4,1767702275164,2.529,-7.3740005,-5.0820003,0.0149875,0.273625,-0.047849998,0.3665771484375,0.6088087558746338,-0.5313439941406255,15.4211667,73.9812233,0.11529778,0.8873293340668398,0.0,0.27818139421940136,0.008777392892471555
9ea5e253-75d7-4e6d-9374-e1af9a10a4f3,4,1767702275174,2.529,-7.3740005,-5.0820003,0.0149875,0.273625,-0.047849998,0.3665771484375,0.6088087558746338,-0.5313439941406255,15.4211667,73.9812233,0.11529778,0.8873293340668398,0.0,0.27818139421940136,0.0034415249393488566
9ea5e253-75d7-4e6d-9374-e1af9a10a4f3,4,1767702275185,2.529,-7.3740005,-5.0820003,0.0149875,0.273625,-0.047849998,0.3665771484375,0.6088087558746338,-0.5313439941406255,15.4211667,73.9812233,0.11529778,0.8873293340668398,0.0,0.27818139421940136,0.001458209288415592
9ea5e253-75d7-4e6d-9374-e1af9a10a4f3,4,1767702275196,2.66295,-7.5840006,-5.2930503,0.0103124995,0.26565,-0.053075,0.4367663860321045,0.6058304309844971,-0.2148471450805669,15.4211667,73.9812233,0.11529778,0.7771452134727955,0.0,0.2710963403864713,-0.004110216533374507
9ea5e253-75d7-4e6d-9374-e1af9a10a4f3,4,1767702275206,2.66295,-7.5840006,-5.2930503,0.0103124995,0.26565,-0.053075,0.4367663860321045,0.6058304309844971,-0.2148471450805669,15.4211667,73.9812233,0.11529778,0.7771452134727955,0.0,0.2710963403864713,0.0007959714707883224
9ea5e253-75d7-4e6d-9374-e1af9a10a4f3,4,1767702275217,2.66295,-7.7179503,-5.3880005,-0.0133375,0.2440625,-0.075075,0.4152414798736572,0.4992676973342895,-0.049521980285645,15.4211667,73.9812233,0.11529778,0.6512650357116989,0.0,0.25569639895293794,-0.006650667600240565
9ea5e253-75d7-4e6d-9374-e1af9a10a4f3,4,1767702275228,2.66295,-7.7179503,-5.3880005,-0.0133375,0.2440625,-0.075075,0.4152414798736572,0.4992676973342895,-0.049521980285645,15.4211667,73.9812233,0.11529778,0.6512650357116989,0.0,0.25569639895293794,0.0038185146451161587
9ea5e253-75d7-4e6d-9374-e1af9a10a4f3,4,1767702275239,2.6820002,-7.7569504,-5.2540503,-0.035475,0.199375,-0.099275,0.2667434215545654,0.4852619171142578,-0.0805669403076176,15.4211667,73.9812233,0.11529778,0.5595732418679191,0.0,0.22553135452748027,-0.014026549462939027
9ea5e253-75d7-4e6d-9374-e1af9a10a4f3,4,1767702275250,2.6820002,-7.7569504,-5.2540503,-0.035475,0.199375,-0.099275,0.2667434215545654,0.4852619171142578,-0.0805669403076176,15.4211667,73.9812233,0.11529778,0.5595732418679191,0.0,0.22553135452748027,-0.0005942245533244771
9ea5e253-75d7-4e6d-9374-e1af9a10a4f3,4,1767702275260,2.529,-7.6420503,-5.04405,-0.0499125,0.1640375,-0.104499996,0.1179001331329345,0.357744812965393,-0.3180394744873052,15.4211667,73.9812233,0.11529778,0.4929816425878037,0.0,0.20079792884016512,-0.011534443156126114
9ea5e253-75d7-4e6d-9374-e1af9a10a4f3,4,1767702275271,2.529,-7.6420503,-5.04405,-0.0499125,0.1640375,-0.104499996,0.1179001331329345,0.357744812965393,-0.3180394744873052,15.4211667,73.9812233,0.11529778,0.4929816425878037,0.0,0.20079792884016512,0.0019108082551523777
9ea5e253-75d7-4e6d-9374-e1af9a10a4f3,4,1767702275282,2.529,-7.6420503,-5.04405,-0.0499125,0.1640375,-0.104499996,0.1179001331329345,0.357744812965393,-0.3180394744873052,15.4211667,73.9812233,0.11529778,0.4929816425878037,0.0,0.20079792884016512,0.014389497433727203
9ea5e253-75d7-4e6d-9374-e1af9a10a4f3,4,1767702275293,2.4709501,-7.5460505,-5.04405,-0.0735625,0.126775,-0.098175,0.1427619457244873,0.2659121751785278,-0.4078794097900395,15.4211667,73.9812233,0.11529778,0.5074010947819176,0.0,0.1764133573634661,0.0010262595605474447
9ea5e253-75d7-4e6d-9374-e1af9a10a4f3,4,1767702275303,2.4709501,-7.5460505,-5.04405,-0.0735625,0.126775,-0.098175,0.1427619457244873,0.2659121751785278,-0.4078794097900395,15.4211667,73.9812233,0.11529778,0.5074010947819176,0.0,0.1764133573634661,0.010253812565477477
9ea5e253-75d7-4e6d-9374-e1af9a10a4f3,4,1767702275314,2.4709501,-7.4119506,-5.1780005,-0.08085,0.0999625,-0.0884125,0.3005313873291015,0.1984357833862304,-0.4438567733764653,15.4211667,73.9812233,0.11529778,0.5715808868132563,0.0,0.15603202896360735,-0.0028607304866404785
9ea5e253-75d7-4e6d-9374-e1af9a10a4f3,4,1767702275325,2.4709501,-7.4119506,-5.1780005,-0.08085,0.0999625,-0.0884125,0.3005313873291015,0.1984357833862304,-0.4438567733764653,15.4211667,73.9812233,0.11529778,0.5715808868132563,0.0,0.15603202896360735,0.002451016318154389
9ea5e253-75d7-4e6d-9374-e1af9a10a4f3,4,1767702275336,2.5090501,-7.2970505,-5.31195,-0.089237496,0.0675125,-0.0848375,0.4499123096466064,0.1710481643676757,-0.4543901062011724,15.4211667,73.9812233,0.11529778,0.6619281906057545,0.0,0.14042318097397602,-0.009631492198264294
9ea5e253-75d7-4e6d-9374-e1af9a10a4f3,4,1767702275347,2.5090501,-7.2970505,-5.31195,-0.089237496,0.0675125,-0.0848375,0.4499123096466064,0.1710481643676757,-0.4543901062011724,15.4211667,73.9812233,0.11529778,0.6619281906057545,0.0,0.14042318097397602,-0.007578070867279107
9ea5e253-75d7-4e6d-9374-e1af9a10a4f3,4,1767702275358,2.529,-7.3549504,-5.427,-0.109037496,0.0240625,-0.088,0.4743580818176269,0.1263225078582763,-0.3388581848144536,15.4211667,73.9812233,0.11529778,0.596487917055366,0.0,0.14216954469998141,-0.004828713138976156
9ea5e253-75d7-4e6d-9374-e1af9a10a4f3,4,1767702275369,2.529,-7.3549504,-5.427,-0.109037496,0.0240625,-0.088,0.4743580818176269,0.1263225078582763,-0.3388581848144536,15.4211667,73.9812233,0.11529778,0.596487917055366,0.0,0.14216954469998141,-0.00438688172402278
9ea5e253-75d7-4e6d-9374-e1af9a10a4f3,4,1767702275379,2.529,-7.3549504,-5.427,-0.109037496,0.0240625,-0.088,0.4743580818176269,0.1263225078582763,-0.3388581848144536,15.4211667,73.9812233,0.11529778,0.596487917055366,0.0,0.14216954469998141,-0.004000953938007773
9ea5e253-75d7-4e6d-9374-e1af9a10a4f3,4,1767702275390,2.529,-7.3549504,-5.427,-0.109037496,0.0240625,-0.088,0.4743580818176269,0.1263225078582763,-0.3388581848144536,15.4211667,73.9812233,0.11529778,0.596487917055366,0.0,0.14216954469998141,-0.0032037220027224425
9ea5e253-75d7-4e6d-9374-e1af9a10a4f3,4,1767702275401,2.5480502,-7.431,-5.4079504,-0.124575,0.000275,-0.082499996,0.3783907890319824,0.1287802457809448,-0.2811742401123052,15.4211667,73.9812233,0.11529778,0.4886950933152276,0.0,0.14941638327171494,0.005628994840081268
9ea5e253-75d7-4e6d-9374-e1af9a10a4f3,4,1767702275412,2.6239502,-7.4890504,-5.31195,-0.1373625,-0.0132,-0.0642125,0.245007038116455,0.2142591476440429,-0.2663179016113286,15.4211667,73.9812233,0.11529778,0.4205480421954324,0.0,0.1522036187562569,0.011034757070029072
9ea5e253-75d7-4e6d-9374-e1af9a10a4f3,4,1767702275423,2.6239502,-7.4890504,-5.31195,-0.1373625,-0.0132,-0.0642125,0.245007038116455,0.2142591476440429,-0.2663179016113286,15.4211667,73.9812233,0.11529778,0.4205480421954324,0.0,0.1522036187562569,0.014767309559349233
9ea5e253-75d7-4e6d-9374-e1af9a10a4f3,4,1767702275434,2.56695,-7.5270004,-5.2540503,-0.130625,-0.0116875,-0.0488125,0.1267423629760742,0.1693956851959228,-0.2808213806152349,15.4211667,73.9812233,0.11529778,0.3515951827690501,0.0,0.13993622989597798,0.007254728854291253
9ea5e253-75d7-4e6d-9374-e1af9a10a4f3,4,1767702275445,2.56695,-7.5270004,-5.2540503,-0.130625,-0.0116875,-0.0488125,0.1267423629760742,0.1693956851959228,-0.2808213806152349,15.4211667,73.9812233,0.11529778,0.3515951827690501,0.0,0.13993622989597798,0.012777442899450348
9ea5e253-75d7-4e6d-9374-e1af9a10a4f3,4,1767702275455,2.4139502,-7.5460505,-5.274,-0.1139875,0.0089375,-0.0268125,0.0622012615203857,0.0154887437820434,-0.2925935363769536,15.4211667,73.9812233,0.11529778,0.2995327622285163,0.0,0.11743908726974168,-0.003814946107098448
9ea5e253-75d7-4e6d-9374-e1af9a10a4f3,4,1767702275466,2.4139502,-7.5460505,-5.274,-0.1139875,0.0089375,-0.0268125,0.0622012615203857,0.0154887437820434,-0.2925935363769536,15.4211667,73.9812233,0.11529778,0.2995327622285163,0.0,0.11743908726974168,0.0020023299376224725
9ea5e253-75d7-4e6d-9374-e1af9a10a4f3,4,1767702275477,2.26005,-7.6039505,-5.274,-0.091575,0.0281875,-0.0015125,-0.0323829650878906,-0.1323417425155639,-0.2850633239746099,15.4211667,73.9812233,0.11529778,0.3159495084905067,0.0,0.09582694525810578,-0.01437487973618842
9ea5e253-75d7-4e6d-9374-e1af9a10a4f3,4,1767702275488,2.26005,-7.6039505,-5.274,-0.091575,0.0281875,-0.0015125,-0.0323829650878906,-0.1323417425155639,-0.2850633239746099,15.4211667,73.9812233,0.11529778,0.3159495084905067,0.0,0.09582694525810578,-0.010181832336818384
9ea5e253-75d7-4e6d-9374-e1af9a10a4f3,4,1767702275498,2.26005,-7.6039505,-5.274,-0.091575,0.0281875,-0.0015125,-0.0323829650878906,-0.1323417425155639,-0.2850633239746099,15.4211667,73.9812233,0.11529778,0.3159495084905067,0.0,0.09582694525810578,-0.007400259616185364
9ea5e253-75d7-4e6d-9374-e1af9a10a4f3,4,1767702275509,2.12595,-7.5649505,-5.2540503,-0.081675,0.015675,0.023924999,-0.0713663101196289,-0.2449147701263427,-0.3607612228393559,15.4211667,73.9812233,0.11529778,0.441842794159504,0.0,0.08653852799273859,-0.015556972778573042
9ea5e253-75d7-4e6d-9374-e1af9a10a4f3,4,1767702275520,2.12595,-7.5649505,-5.2540503,-0.081675,0.015675,0.023924999,-0.0713663101196289,-0.2449147701263427,-0.3607612228393559,15.4211667,73.9812233,0.11529778,0.441842794159504,0.0,0.08653852799273859,-0.016159477430826838
9ea5e253-75d7-4e6d-9374-e1af9a10a4f3,4,1767702275531,2.0689502,-7.5840006,-5.3310003,-0.0771375,-0.003025,0.0851125,-0.0501832962036132,-0.3126153945922851,-0.317003784179688,15.4211667,73.9812233,0.11529778,0.4480381092476308,0.0,0.11490640620739993,0.009944007577297489
9ea5e253-75d7-4e6d-9374-e1af9a10a4f3,4,1767702275541,2.0689502,-7.5840006,-5.3310003,-0.0771375,-0.003025,0.0851125,-0.0501832962036132,-0.3126153945922851,-0.317003784179688,15.4211667,73.9812233,0.11529778,0.4480381092476308,0.0,0.11490640620739993,0.006230541785355913
9ea5e253-75d7-4e6d-9374-e1af9a10a4f3,4,1767702275552,2.12595,-7.6039505,-5.427,-0.07535,-0.0185625,0.100237496,0.0136275291442871,-0.2661300897598266,-0.2328897094726567,15.4211667,73.9812233,0.11529778,0.3539047202347127,0.0,0.12676649600978965,0.013250841577431144
9ea5e253-75d7-4e6d-9374-e1af9a10a4f3,4,1767702275563,2.12595,-7.6039505,-5.427,-0.07535,-0.0185625,0.100237496,0.0136275291442871,-0.2661300897598266,-0.2328897094726567,15.4211667,73.9812233,0.11529778,0.3539047202347127,0.0,0.12676649600978965,0.007678675579592538
9ea5e253-75d7-4e6d-9374-e1af9a10a4f3,4,1767702275574,2.22195,-7.66095,-5.3880005,-0.0820875,-0.0418,0.1007875,-0.0380220413208007,-0.1362593173980713,-0.185146865844727,15.4211667,73.9812233,0.11529778,0.2330056633133932,0.0,0.13654200017760104,0.011574597887961979
9ea5e253-75d7-4e6d-9374-e1af9a10a4f3,4,1767702275585,2.22195,-7.66095,-5.3880005,-0.0820875,-0.0418,0.1007875,-0.0380220413208007,-0.1362593173980713,-0.185146865844727,15.4211667,73.9812233,0.11529778,0.2330056633133932,0.0,0.13654200017760104,0.0058077637148351005
9ea5e253-75d7-4e6d-9374-e1af9a10a4f3,4,1767702275596,2.2410002,-7.6039505,-5.4079504,-0.0820875,-0.0418,0.1007875,0.0059237480163574,-0.0910673141479492,-0.2141786193847661,15.4211667,73.9812233,0.11529778,0.2328107117343338,0.0,0.13654200017760104,0.000541541441952567
9ea5e253-75d7-4e6d-9374-e1af9a10a4f3,4,1767702275607,2.2410002,-7.6039505,-5.4079504,-0.075075,-0.0397375,0.1120625,0.0059237480163574,-0.0910673141479492,-0.2141786193847661,15.4211667,73.9812233,0.11529778,0.2328107117343338,0.0,0.14061766758661587,0.00018947837664119981
9ea5e253-75d7-4e6d-9374-e1af9a10a4f3,4,1767702275618,2.2410002,-7.6039505,-5.4079504,-0.075075,-0.0397375,0.1120625,0.0059237480163574,-0.0910673141479492,-0.2141786193847661,15.4211667,73.9812233,0.11529778,0.2328107117343338,0.0,0.14061766758661587,-0.0031205724568586757
9ea5e253-75d7-4e6d-9374-e1af9a10a4f3,4,1767702275629,2.2800002,-7.4890504,-5.31195,-0.045375,-0.0342375,0.122237496,0.0031023025512695,0.0125077962875366,-0.3495069122314458,15.4211667,73.9812233,0.11529778,0.3497444080277048,0.0,0.13480764985563695,-0.010904834142449563
9ea5e253-75d7-4e6d-9374-e1af9a10a4f3,4,1767702275640,2.2800002,-7.4890504,-5.31195,-0.045375,-0.0342375,0.122237496,0.0031023025512695,0.0125077962875366,-0.3495069122314458,15.4211667,73.9812233,0.11529778,0.3497444080277048,0.0,0.13480764985563695,-0.01138577243005137
9ea5e253-75d7-4e6d-9374-e1af9a10a4f3,4,1767702275651,2.2410002,-7.431,-5.31195,-0.0188375,-0.03795,0.127325,0.0277318954467773,0.0067760944366455,-0.4047961807250981,15.4211667,73.9812233,0.11529778,0.4058015788664599,0.0,0.1341890812668825,-0.010895266869432
9ea5e253-75d7-4e6d-9374-e1af9a10a4f3,4,1767702275662,2.2410002,-7.431,-5.31195,-0.0188375,-0.03795,0.127325,0.0277318954467773,0.0067760944366455,-0.4047961807250981,15.4211667,73.9812233,0.11529778,0.4058015788664599,0.0,0.1341890812668825,-0.008163308401799149
9ea5e253-75d7-4e6d-9374-e1af9a10a4f3,4,1767702275672,2.4139502,-7.39305,-5.3880005,-0.014712499,-0.0485375,0.130625,0.1502382755279541,0.1717710494995117,-0.351519165039063,15.4211667,73.9812233,0.11529778,0.4190973112172603,0.0,0.14012579048153484,0.0020908698604689396
9ea5e253-75d7-4e6d-9374-e1af9a10a4f3,4,1767702275683,2.4139502,-7.39305,-5.3880005,-0.014712499,-0.0485375,0.130625,0.1502382755279541,0.1717710494995117,-0.351519165039063,15.4211667,73.9812233,0.11529778,0.4190973112172603,0.0,0.14012579048153484,0.007877972873237939
9ea5e253-75d7-4e6d-9374-e1af9a10a4f3,4,1767702275694,2.433,-7.431,-5.3880005,-0.0108624995,-0.0606375,0.1142625,0.1340892314910888,0.2142821550369262,-0.3175845718383794,15.4211667,73.9812233,0.11529778,0.4059023580110207,0.0,0.12981070529000102,0.004618338470694406
9ea5e253-75d7-4e6d-9374-e1af9a10a4f3,4,1767702275705,2.433,-7.431,-5.3880005,-0.0108624995,-0.0606375,0.1142625,0.1340892314910888,0.2142821550369262,-0.3175845718383794,15.4211667,73.9812233,0.11529778,0.4059023580110207,0.0,0.12981070529000102,0.012653936766428713
9ea5e253-75d7-4e6d-9374-e1af9a10a4f3,4,1767702275716,2.433,-7.431,-5.3880005,-0.0108624995,-0.0606375,0.1142625,0.1340892314910888,0.2142821550369262,-0.3175845718383794,15.4211667,73.9812233,0.11529778,0.4059023580110207,0.0,0.12981070529000102,0.02130226417990979
9ea5e253-75d7-4e6d-9374-e1af9a10a4f3,4,1767702275726,2.49,-7.4689503,-5.427,-0.0103124995,-0.0628375,0.07095,0.1548759937286377,0.2765058279037475,-0.2529492950439458,15.4211667,73.9812233,0.11529778,0.4054940100191358,0.0,0.09533520625764388,-0.004339489847098566
9ea5e253-75d7-4e6d-9374-e1af9a10a4f3,4,1767702275737,2.49,-7.4689503,-5.427,-0.0103124995,-0.0628375,0.07095,0.1548759937286377,0.2765058279037475,-0.2529492950439458,15.4211667,73.9812233,0.11529778,0.4054940100191358,0.0,0.09533520625764388,0.004223634940769974
9ea5e253-75d7-4e6d-9374-e1af9a10a4f3,4,1767702275748,2.4139502,-7.4890504,-5.44605,-0.023924999,-0.058025,0.042625,0.1370792388916015,0.2138137817382812,-0.2440190887451176,15.4211667,73.9812233,0.11529778,0.3522106850570036,0.0,0.07586960410566278,-0.007393579698031957
9ea5e253-75d7-4e6d-9374-e1af9a10a4f3,4,1767702275759,2.4139502,-7.4890504,-5.44605,-0.023924999,-0.058025,0.042625,0.1370792388916015,0.2138137817382812,-0.2440190887451176,15.4211667,73.9812233,0.11529778,0.3522106850570036,0.0,0.07586960410566278,-0.0006467082419224296
9ea5e253-75d7-4e6d-9374-e1af9a10a4f3,4,1767702275770,2.3749502,-7.5460505,-5.427,-0.0457875,-0.043449998,0.0099,0.0730280876159668,0.1918717622756958,-0.2186790084838872,15.4211667,73.9812233,0.11529778,0.2999473011899298,0.0,0.06389372021137918,-0.007262797428393373
9ea5e253-75d7-4e6d-9374-e1af9a10a4f3,4,1767702275780,2.3749502,-7.5460505,-5.427,-0.0457875,-0.043449998,0.0099,0.0730280876159668,0.1918717622756958,-0.2186790084838872,15.4211667,73.9812233,0.11529778,0.2999473011899298,0.0,0.06389372021137918,-0.0034389128902470663
9ea5e253-75d7-4e6d-9374-e1af9a10a4f3,4,1767702275791,2.29905,-7.6039505,-5.4079504,-0.0479875,-0.017324999,-0.022824999,-0.0043854713439941,0.129793643951416,-0.2009025192260747,15.4211667,73.9812233,0.11529778,0.2392225838011103,0.0,0.05589218483786443,-0.0091436404081983
9ea5e253-75d7-4e6d-9374-e1af9a10a4f3,4,1767702275802,2.29905,-7.6039505,-5.4079504,-0.0479875,-0.017324999,-0.022824999,-0.0043854713439941,0.129793643951416,-0.2009025192260747,15.4211667,73.9812233,0.11529778,0.2392225838011103,0.0,0.05589218483786443,-0.008205551340422819
9ea5e253-75d7-4e6d-9374-e1af9a10a4f3,4,1767702275813,2.2030501,-7.5460505,-5.31195,-0.045375,0.0103124995,-0.0325875,-0.0746345520019531,0.0700933933258056,-0.3230271911621099,15.4211667,73.9812233,0.11529778,0.3388657055096319,0.0,0.056808304209750006,-0.007401408852990243
9ea5e253-75d7-4e6d-9374-e1af9a10a4f3,4,1767702275823,2.2030501,-7.5460505,-5.31195,-0.045375,0.0103124995,-0.0325875,-0.0746345520019531,0.0700933933258056,-0.3230271911621099,15.4211667,73.9812233,0.11529778,0.3388657055096319,0.0,0.056808304209750006,-0.008153812173822937
9ea5e253-75d7-4e6d-9374-e1af9a10a4f3,4,1767702275834,2.2030501,-7.5460505,-5.31195,-0.045375,0.0103124995,-0.0325875,-0.0746345520019531,0.0700933933258056,-0.3230271911621099,15.4211667,73.9812233,0.11529778,0.3388657055096319,0.0,0.056808304209750006,-0.009091265157144346
9ea5e253-75d7-4e6d-9374-e1af9a10a4f3,4,1767702275845,2.2800002,-7.4119506,-5.2540503,-0.051425,0.056925,0.0067375,-0.0295267105102539,0.1611713171005249,-0.4444461441040044,15.4211667,73.9812233,0.11529778,0.4736880778512287,0.0,0.07700896153208404,0.010423746319914372
9ea5e253-75d7-4e6d-9374-e1af9a10a4f3,4,1767702275855,2.2800002,-7.4119506,-5.2540503,-0.051425,0.056925,0.0067375,-0.0295267105102539,0.1611713171005249,-0.4444461441040044,15.4211667,73.9812233,0.11529778,0.4736880778512287,0.0,0.07700896153208404,0.01034389179454815
9ea5e253-75d7-4e6d-9374-e1af9a10a4f3,5,1767702275866,2.1649501,-7.6420503,-5.5219502,-0.0539,0.0691625,0.0160875,-0.0023374557495117,-0.0505707263946533,-0.1364636993408208,15.421165,73.9812233,0.054045834,0.1455513768579526,0.0,0.08914857857812429,0.023225729512646086
9ea5e253-75d7-4e6d-9374-e1af9a10a4f3,5,1767702275876,2.1649501,-7.6420503,-5.5219502,-0.0539,0.0691625,0.0160875,-0.0023374557495117,-0.0505707263946533,-0.1364636993408208,15.421165,73.9812233,0.054045834,0.1455513768579526,0.0,0.08914857857812429,0.024832045585827675
9ea5e253-75d7-4e6d-9374-e1af9a10a4f3,5,1767702275887,2.8159502,-7.66095,-5.676,-0.0369875,0.0455125,0.01265,0.2397913932800293,0.4980651140213012,0.116284790039062,15.421165,73.9812233,0.054045834,0.5648813348754393,0.0,0.05999571078418856,-0.0019947243582435024
9ea5e253-75d7-4e6d-9374-e1af9a10a4f3,5,1767702275898,2.8159502,-7.66095,-5.676,-0.0369875,0.0455125,0.01265,0.2397913932800293,0.4980651140213012,0.116284790039062,15.421165,73.9812233,0.054045834,0.5648813348754393,0.0,0.05999571078418856,0.0007353626834630792
9ea5e253-75d7-4e6d-9374-e1af9a10a4f3,5,1767702275909,2.22195,-7.14405,-5.3880005,-0.0317625,0.0422125,0.011,0.1906991004943847,0.0479335784912109,-0.59227710723877,15.421165,73.9812233,0.054045834,0.6240640565162089,0.0,0.05396064827723996,-0.0026130634999297704
9ea5e253-75d7-4e6d-9374-e1af9a10a4f3,5,1767702275920,2.22195,-7.14405,-5.3880005,-0.0317625,0.0422125,0.011,0.1906991004943847,0.0479335784912109,-0.59227710723877,15.421165,73.9812233,0.054045834,0.6240640565162089,0.0,0.05396064827723996,-0.0004901900258469631
9ea5e253-75d7-4e6d-9374-e1af9a10a4f3,5,1767702275931,2.22195,-7.14405,-5.3880005,-0.0317625,0.0422125,0.011,0.1906991004943847,0.0479335784912109,-0.59227710723877,15.421165,73.9812233,0.054045834,0.6240640565162089,0.0,0.05396064827723996,0.0005444159368785133
9ea5e253-75d7-4e6d-9374-e1af9a10a4f3,5,1767702275941,2.1460502,-7.5460505,-5.1010504,-0.026675,0.0097624995,-0.0075625,-0.2927196025848388,0.0507577657699584,-0.4568791961669927,15.421165,73.9812233,0.054045834,0.5449768035555104,0.0,0.02939478572361942,-0.02453568458228166
9ea5e253-75d7-4e6d-9374-e1af9a10a4f3,5,1767702275952,2.1460502,-7.5460505,-5.1010504,-0.026675,0.0097624995,-0.0075625,-0.2927196025848388,0.0507577657699584,-0.4568791961669927,15.421165,73.9812233,0.054045834,0.5449768035555104,0.0,0.02939478572361942,-0.026937965337608755
9ea5e253-75d7-4e6d-9374-e1af9a10a4f3,5,1767702275963,2.35605,-7.6039505,-5.3880005,0.00165,-0.0372625,-0.0352,-0.0659475326538086,0.1503489017486572,-0.1988273239135747,15.421165,73.9812233,0.054045834,0.2578491304130888,0.0,0.05128602544797169,-0.009516129946058792
9ea5e253-75d7-4e6d-9374-e1af9a10a4f3,5,1767702275973,2.35605,-7.6039505,-5.3880005,0.00165,-0.0372625,-0.0352,-0.0659475326538086,0.1503489017486572,-0.1988273239135747,15.421165,73.9812233,0.054045834,0.2578491304130888,0.0,0.05128602544797169,-0.01605611736370737
9ea5e253-75d7-4e6d-9374-e1af9a10a4f3,5,1767702275984,1.8010501,-7.623,-5.6179504,0.0204875,-0.066275,-0.0484,-0.0324978828430175,-0.4531679153442383,-0.1814561462402348,15.421165,73.9812233,0.054045834,0.4892275594190077,0.0,0.08458530180385952,0.008796842583591287
9ea5e253-75d7-4e6d-9374-e1af9a10a4f3,5,1767702275994,1.8010501,-7.623,-5.6179504,0.0204875,-0.066275,-0.0484,-0.0324978828430175,-0.4531679153442383,-0.1814561462402348,15.421165,73.9812233,0.054045834,0.4892275594190077,0.0,0.08458530180385952,-0.0012509987162595895
9ea5e253-75d7-4e6d-9374-e1af9a10a4f3,5,1767702276005,2.7580502,-7.3740005,-5.3880005,0.0361625,-0.1357125,-0.005225,0.1626906394958496,0.5365477800369263,-0.2864003753662114,15.421165,73.9812233,0.054045834,0.6295847357203231,0.0,0.14054504504784224,0.04346578603017817
9ea5e253-75d7-4e6d-9374-e1af9a10a4f3,5,1767702276016,2.7580502,-7.3740005,-5.3880005,0.0361625,-0.1357125,-0.005225,0.1626906394958496,0.5365477800369263,-0.2864003753662114,15.421165,73.9812233,0.054045834,0.6295847357203231,0.0,0.14054504504784224,0.031493950810206235
9ea5e253-75d7-4e6d-9374-e1af9a10a4f3,5,1767702276027,2.7580502,-7.3740005,-5.3880005,0.0361625,-0.1357125,-0.005225,0.1626906394958496,0.5365477800369263,-0.2864003753662114,15.421165,73.9812233,0.054045834,0.6295847357203231,0.0,0.14054504504784224,0.01928292016797812
9ea5e253-75d7-4e6d-9374-e1af9a10a4f3,5,1767702276038,2.2410002,-7.39305,-5.3310003,0.033,-0.124575,-0.0138875,-0.0019664764404296,0.0787174701690673,-0.4242320632934575,15.421165,73.9812233,0.054045834,0.4314778681063873,0.0,0.12961787408089212,-0.0036069811937898626
9ea5e253-75d7-4e6d-9374-e1af9a10a4f3,5,1767702276049,2.2410002,-7.39305,-5.3310003,0.033,-0.124575,-0.0138875,-0.0019664764404296,0.0787174701690673,-0.4242320632934575,15.421165,73.9812233,0.054045834,0.4314778681063873,0.0,0.12961787408089212,-0.014849649229715952
9ea5e253-75d7-4e6d-9374-e1af9a10a4f3,5,1767702276059,2.4709501,-7.5840006,-5.3500504,0.03135,-0.1227875,-0.0287375,-0.0473227500915527,0.2946275472640991,-0.2101731872558598,15.421165,73.9812233,0.054045834,0.3649898668790317,0.0,0.12994397470640953,-0.02459436885435719
9ea5e253-75d7-4e6d-9374-e1af9a10a4f3,5,1767702276070,2.4709501,-7.5840006,-5.3500504,0.03135,-0.1227875,-0.0287375,-0.0473227500915527,0.2946275472640991,-0.2101731872558598,15.421165,73.9812233,0.054045834,0.3649898668790317,0.0,0.12994397470640953,-0.033062080515493954
9ea5e253-75d7-4e6d-9374-e1af9a10a4f3,5,1767702276081,2.1070502,-7.79505,-5.235,0.0347875,-0.147675,-0.0741125,-0.3360884189605713,-0.0167043209075927,-0.1925950622558598,15.421165,73.9812233,0.054045834,0.3877206696859723,0.0,0.1688512316730322,-0.0006119257309394072
9ea5e253-75d7-4e6d-9374-e1af9a10a4f3,5,1767702276092,2.1070502,-7.79505,-5.235,0.0347875,-0.147675,-0.0741125,-0.3360884189605713,-0.0167043209075927,-0.1925950622558598,15.421165,73.9812233,0.054045834,0.3877206696859723,0.0,0.1688512316730322,-0.004685609413811546
9ea5e253-75d7-4e6d-9374-e1af9a10a4f3,5,1767702276103,2.22195,-7.5079503,-5.3310003,0.043175,-0.15015,-0.08965,-0.0718698501586914,0.0732526779174804,-0.3381763076782231,15.421165,73.9812233,0.054045834,0.3534040821195917,0.0,0.18012835874731106,0.005218642549149734
9ea5e253-75d7-4e6d-9374-e1af9a10a4f3,5,1767702276114,2.22195,-7.5079503,-5.3310003,0.043175,-0.15015,-0.08965,-0.0718698501586914,0.0732526779174804,-0.3381763076782231,15.421165,73.9812233,0.054045834,0.3534040821195917,0.0,0.18012835874731106,0.006779373750517217
9ea5e253-75d7-4e6d-9374-e1af9a10a4f3,5,1767702276124,2.22195,-7.5079503,-5.3310003,0.043175,-0.15015,-0.08965,-0.0718698501586914,0.0732526779174804,-0.3381763076782231,15.421165,73.9812233,0.054045834,0.3534040821195917,0.0,0.18012835874731106,0.011388634502697047
9ea5e253-75d7-4e6d-9374-e1af9a10a4f3,5,1767702276135,2.29905,-7.5460505,-5.19705,0.043175,-0.12595,-0.08635,-0.1790287494659423,0.1890771389007568,-0.3670087432861333,15.421165,73.9812233,0.054045834,0.4499965280296084,0.0,0.15869406297968427,-0.002422026676854874
9ea5e253-75d7-4e6d-9374-e1af9a10a4f3,5,1767702276146,2.29905,-7.5460505,-5.19705,0.043175,-0.12595,-0.08635,-0.1790287494659423,0.1890771389007568,-0.3670087432861333,15.421165,73.9812233,0.054045834,0.4499965280296084,0.0,0.15869406297968427,0.008010252624985833
9ea5e253-75d7-4e6d-9374-e1af9a10a4f3,5,1767702276157,2.3370001,-7.7179503,-4.9669504,0.0581625,-0.1098625,-0.065175,-0.4436595439910888,0.2807697057723999,-0.3536096191406255,15.421165,73.9812233,0.054045834,0.6330127813896644,0.0,0.1403582058074981,0.002529988521465733
9ea5e253-75d7-4e6d-9374-e1af9a10a4f3,5,1767702276168,2.3370001,-7.7179503,-4.9669504,0.0581625,-0.1098625,-0.065175,-0.4436595439910888,0.2807697057723999,-0.3536096191406255,15.421165,73.9812233,0.054045834,0.6330127813896644,0.0,0.1403582058074981,0.017254236427577636
9ea5e253-75d7-4e6d-9374-e1af9a10a4f3,5,1767702276178,2.29905,-7.4119506,-5.71395,0.0858,-0.0620125,-0.0350625,0.307981014251709,0.0344160795211792,-0.1779780960083012,15.421165,73.9812233,0.054045834,0.3573695207035144,0.0,0.11151936631141696,0.004314107090184965
9ea5e253-75d7-4e6d-9374-e1af9a10a4f3,5,1767702276189,2.29905,-7.4119506,-5.71395,0.0858,-0.0620125,-0.0350625,0.307981014251709,0.0344160795211792,-0.1779780960083012,15.421165,73.9812233,0.054045834,0.3573695207035144,0.0,0.11151936631141696,0.02060112796024775
9ea5e253-75d7-4e6d-9374-e1af9a10a4f3,5,1767702276200,2.3749502,-7.4500504,-5.5219502,0.042075,-0.03025,-0.00935,0.1647639274597168,0.1595286130905151,-0.240099487304688,15.421165,73.9812233,0.054045834,0.332030561832052,0.0,0.052657294129113776,-0.022403010686184905
9ea5e253-75d7-4e6d-9374-e1af9a10a4f3,5,1767702276210,2.3749502,-7.4500504,-5.5219502,0.042075,-0.03025,-0.00935,0.1647639274597168,0.1595286130905151,-0.240099487304688,15.421165,73.9812233,0.054045834,0.332030561832052,0.0,0.052657294129113776,-0.007755972695286384
9ea5e253-75d7-4e6d-9374-e1af9a10a4f3,5,1767702276221,2.56695,-7.6039505,-5.44605,0.0202125,-0.0075625,0.0034375,0.0575995445251464,0.3504705429077148,-0.1176000213623051,15.421165,73.9812233,0.054045834,0.3741351012668383,0.0,0.02185298535097665,-0.02580573297645403
9ea5e253-75d7-4e6d-9374-e1af9a10a4f3,5,1767702276232,2.56695,-7.6039505,-5.44605,0.0202125,-0.0075625,0.0034375,0.0575995445251464,0.3504705429077148,-0.1176000213623051,15.421165,73.9812233,0.054045834,0.3741351012668383,0.0,0.02185298535097665,-0.015470842653483847
9ea5e253-75d7-4e6d-9374-e1af9a10a4f3,5,1767702276242,2.56695,-7.6039505,-5.44605,0.0202125,-0.0075625,0.0034375,0.0575995445251464,0.3504705429077148,-0.1176000213623051,15.421165,73.9812233,0.054045834,0.3741351012668383,0.0,0.02185298535097665,-0.00789107797039115
9ea5e253-75d7-4e6d-9374-e1af9a10a4f3,5,1767702276253,1.9920001,-7.3740005,-5.3500504,-0.0056375,0.037675,-0.0056375,0.0149569511413574,-0.1566982269287109,-0.4857183074951177,15.421165,73.9812233,0.054045834,0.510588208780783,0.0,0.038509329226825026,0.01346283377609765
9ea5e253-75d7-4e6d-9374-e1af9a10a4f3,5,1767702276264,1.9920001,-7.3740005,-5.3500504,-0.0056375,0.037675,-0.0056375,0.0149569511413574,-0.1566982269287109,-0.4857183074951177,15.421165,73.9812233,0.054045834,0.510588208780783,0.0,0.038509329226825026,0.015355349225795453
9ea5e253-75d7-4e6d-9374-e1af9a10a4f3,5,1767702276275,1.9920001,-7.4500504,-5.2540503,-0.002475,0.0308,-0.0165,-0.1052942276000976,-0.1489442586898803,-0.4803109741210942,15.421165,73.9812233,0.054045834,0.5137800097548888,0.0,0.03502878280785674,0.01122125423240528
9ea5e253-75d7-4e6d-9374-e1af9a10a4f3,5,1767702276286,1.9920001,-7.4500504,-5.2540503,-0.002475,0.0308,-0.0165,-0.1052942276000976,-0.1489442586898803,-0.4803109741210942,15.421165,73.9812233,0.054045834,0.5137800097548888,0.0,0.03502878280785674,0.008426549889368943
9ea5e253-75d7-4e6d-9374-e1af9a10a4f3,5,1767702276297,2.2030501,-7.5649505,-5.5219502,0.005225,0.0006875,-0.022824999,0.0708789825439453,-0.0515053272247314,-0.1888681030273442,15.421165,73.9812233,0.054045834,0.2082013190163287,0.0,0.02342549595206046,-0.0076059128023499315
9ea5e253-75d7-4e6d-9374-e1af9a10a4f3,5,1767702276308,2.2030501,-7.5649505,-5.5219502,0.005225,0.0006875,-0.022824999,0.0708789825439453,-0.0515053272247314,-0.1888681030273442,15.421165,73.9812233,0.054045834,0.2082013190163287,0.0,0.02342549595206046,-0.01310847243517082
9ea5e253-75d7-4e6d-9374-e1af9a10a4f3,5,1767702276319,2.7970502,-7.6990504,-5.46495,0.01155,-0.0427625,-0.0174625,0.0613346099853515,0.5118142366409302,0.0235590362548823,15.421165,73.9812233,0.054045834,0.5160143170491029,0.0,0.047612737922745,0.0050718187118612874
9ea5e253-75d7-4e6d-9374-e1af9a10a4f3,5,1767702276329,2.7970502,-7.6990504,-5.46495,0.01155,-0.0427625,-0.0174625,0.0613346099853515,0.5118142366409302,0.0235590362548823,15.421165,73.9812233,0.054045834,0.5160143170491029,0.0,0.047612737922745,-0.0009051062326418314
9ea5e253-75d7-4e6d-9374-e1af9a10a4f3,5,1767702276340,2.7970502,-7.7179503,-5.3310003,0.0081124995,-0.044275,-0.0375375,-0.0502815246582031,0.5479810237884521,-0.0372300720214848,15.421165,73.9812233,0.054045834,0.5515410342095306,0.0,0.0586101712963501,0.004609169586294985
9ea5e253-75d7-4e6d-9374-e1af9a10a4f3,5,1767702276351,2.7970502,-7.7179503,-5.3310003,0.0081124995,-0.044275,-0.0375375,-0.0502815246582031,0.5479810237884521,-0.0372300720214848,15.421165,73.9812233,0.054045834,0.5515410342095306,0.0,0.0586101712963501,-1.5123984307354556e-05
9ea5e253-75d7-4e6d-9374-e1af9a10a4f3,5,1767702276361,2.7970502,-7.7179503,-5.3310003,0.0081124995,-0.044275,-0.0375375,-0.0502815246582031,0.5479810237884521,-0.0372300720214848,15.421165,73.9812233,0.054045834,0.5515410342095306,0.0,0.0586101712963501,-0.003532764225367615
9ea5e253-75d7-4e6d-9374-e1af9a10a4f3,5,1767702276372,1.6860001,-7.4689503,-5.31195,-0.0017875,-0.0413875,-0.0554125,-0.1314225196838379,-0.4862326383590698,-0.5045734024047857,15.421165,73.9812233,0.054045834,0.7129434589783488,0.0,0.0691857316847195,0.0047534779169405425
9ea5e253-75d7-4e6d-9374-e1af9a10a4f3,5,1767702276383,1.6860001,-7.4689503,-5.31195,-0.0017875,-0.0413875,-0.0554125,-0.1314225196838379,-0.4862326383590698,-0.5045734024047857,15.421165,73.9812233,0.054045834,0.7129434589783488,0.0,0.0691857316847195,0.00368890397592272
9ea5e253-75d7-4e6d-9374-e1af9a10a4f3,5,1767702276394,1.6860001,-7.4689503,-5.31195,-0.0017875,-0.0413875,-0.0554125,-0.1314225196838379,-0.4862326383590698,-0.5045734024047857,15.421165,73.9812233,0.054045834,0.7129434589783488,0.0,0.0691857316847195,0.003729927523608536
9ea5e253-75d7-4e6d-9374-e1af9a10a4f3,5,1767702276405,1.8580501,-7.4119506,-5.1010504,-0.0088,-0.0364375,-0.055275,-0.2305097579956054,-0.2665427923202514,-0.6292634582519536,15.421165,73.9812233,0.054045834,0.7212158543461711,0.0,0.0667866530921411,0.0022596673927677206
9ea5e253-75d7-4e6d-9374-e1af9a10a4f3,5,1767702276416,1.743,-7.4890504,-5.484,-0.0158125,-0.0441375,-0.03575,-0.01218843460083,-0.5036482810974121,-0.3789659118652349,15.421165,73.9812233,0.054045834,0.6304167759080064,0.0,0.05895944845824119,-0.004045357658095995
