session_id,window_id,timestamp,accel_x,accel_y,accel_z,gyro_x,gyro_y,gyro_z,linear_accel_x,linear_accel_y,linear_accel_z,latitude,longitude,speed,vibration_intensity,anomaly_score,raw_magnitude,vibration_only
d3e63cf4-6e69-4aa7-a19d-947dec627d18,4,1767700828226,-3.5020502,7.0249505,-6.0199504,-0.1216875,0.0856625,0.1375,0.1829228401184082,-0.4003704786300659,0.0723251724243159,15.4212326,73.9812722,0.096348256,0.446080952475736,0.0,0.20261333016980893,-0.0024607776366139074
d3e63cf4-6e69-4aa7-a19d-947dec627d18,4,1767700828237,-3.1000502,7.083,-5.5800004,-0.09295,0.0614625,0.1106875,0.4141836166381836,-0.0367887392640113,-0.2841010665893559,15.4212326,73.9812722,0.096348256,0.5036019218245011,0.0,0.1570638852903493,-0.022707468282206558
d3e63cf4-6e69-4aa7-a19d-947dec627d18,4,1767700828247,-3.25305,7.04505,-5.71395,-0.0697125,0.038225,0.0906125,0.3037166595458984,-0.225061222910881,-0.1808019256591801,15.4212326,73.9812722,0.096348256,0.4190294735050605,0.0,0.1205471212327362,-0.03203571954247881
d3e63cf4-6e69-4aa7-a19d-947dec627d18,4,1767700828258,-3.25305,7.04505,-5.71395,-0.0697125,0.038225,0.0906125,0.3037166595458984,-0.225061222910881,-0.1808019256591801,15.4212326,73.9812722,0.096348256,0.4190294735050605,0.0,0.1205471212327362,-0.005491322371411851
d3e63cf4-6e69-4aa7-a19d-947dec627d18,4,1767700828269,-2.5450501,6.9490504,-5.5420504,-0.0231,0.0044,0.067925,0.1782951354980468,0.3604409098625183,-0.5731587982177739,15.4212326,73.9812722,0.096348256,0.7001555632994926,0.0,0.07188028676208798,-0.03034847572958889
d3e63cf4-6e69-4aa7-a19d-947dec627d18,4,1767700828279,-2.5450501,6.9490504,-5.5420504,-0.0231,0.0044,0.067925,0.1782951354980468,0.3604409098625183,-0.5731587982177739,15.4212326,73.9812722,0.096348256,0.7001555632994926,0.0,0.07188028676208798,-0.010752260722045886
d3e63cf4-6e69-4aa7-a19d-947dec627d18,4,1767700828290,-2.5450501,6.9490504,-5.5420504,-0.0231,0.0044,0.067925,0.1782951354980468,0.3604409098625183,-0.5731587982177739,15.4212326,73.9812722,0.096348256,0.7001555632994926,0.0,0.07188028676208798,0.003840536352263609
d3e63cf4-6e69-4aa7-a19d-947dec627d18,4,1767700828301,-3.1579502,7.083,-5.5030503,-0.009625,-0.0048125,0.0617375,0.4380793571472168,-0.1559819877147674,-0.3121667480468755,15.4212326,73.9812722,0.096348256,0.5600821209752459,0.0,0.062668330817886,0.0041013747239224225
d3e63cf4-6e69-4aa7-a19d-947dec627d18,4,1767700828311,-3.1579502,7.083,-5.5030503,-0.009625,-0.0048125,0.0617375,0.4380793571472168,-0.1559819877147674,-0.3121667480468755,15.4212326,73.9812722,0.096348256,0.5600821209752459,0.0,0.062668330817886,0.008916473070546535
d3e63cf4-6e69-4aa7-a19d-947dec627d18,4,1767700828322,-3.426,7.1980505,-5.5219502,0.011,-0.0248875,0.061049998,0.5413618087768555,-0.3608689904212951,-0.1343570327758794,15.4212326,73.9812722,0.096348256,0.6643424181144632,0.0,0.06683928419761842,0.014133403441186266
d3e63cf4-6e69-4aa7-a19d-947dec627d18,4,1767700828333,-3.426,7.1980505,-5.5219502,0.011,-0.0248875,0.061049998,0.5413618087768555,-0.3608689904212951,-0.1343570327758794,15.4212326,73.9812722,0.096348256,0.6643424181144632,0.0,0.06683928419761842,0.012539651821170433
d3e63cf4-6e69-4aa7-a19d-947dec627d18,4,1767700828344,-3.6750002,7.3510504,-5.7910504,0.0160875,-0.0374,0.0617375,0.461514949798584,-0.5258078575134277,0.2194771194458002,15.4212326,73.9812722,0.096348256,0.7332394955747247,0.0,0.07395327283156575,0.016598531070579497
d3e63cf4-6e69-4aa7-a19d-947dec627d18,4,1767700828354,-3.6750002,7.3510504,-5.7910504,0.0160875,-0.0374,0.0617375,0.461514949798584,-0.5258078575134277,0.2194771194458002,15.4212326,73.9812722,0.096348256,0.7332394955747247,0.0,0.07395327283156575,0.013135635003440112
d3e63cf4-6e69-4aa7-a19d-947dec627d18,4,1767700828365,-3.828,7.293,-5.925,0.022,-0.0444125,0.0605,0.3450837135314941,-0.6860554218292236,0.3071789169311518,15.4212326,73.9812722,0.096348256,0.8271116600392935,0.0,0.07820946334204065,0.014314091185206206
d3e63cf4-6e69-4aa7-a19d-947dec627d18,4,1767700828376,-3.828,7.293,-5.925,0.022,-0.0444125,0.0605,0.3450837135314941,-0.6860554218292236,0.3071789169311518,15.4212326,73.9812722,0.096348256,0.8271116600392935,0.0,0.07820946334204065,0.012069456030956337
d3e63cf4-6e69-4aa7-a19d-947dec627d18,4,1767700828386,-3.732,7.3890004,-5.5800004,0.021724999,-0.0598125,0.0158125,0.6456003189086914,-0.5513292551040649,0.1368984603881831,15.4212326,73.9812722,0.096348256,0.8599447120398277,0.0,0.06557092262619156,-0.0019045905659628459
d3e63cf4-6e69-4aa7-a19d-947dec627d18,4,1767700828397,-3.081,7.3510504,-5.5800004,0.021724999,-0.0598125,0.0158125,0.4241852760314941,0.0334748476743698,-0.0896163558959965,15.4212326,73.9812722,0.096348256,0.4348388265470496,0.0,0.06557092262619156,-0.0025977320916654974
d3e63cf4-6e69-4aa7-a19d-947dec627d18,4,1767700828408,-3.081,7.3510504,-5.5800004,0.021724999,-0.0598125,0.0158125,0.4241852760314941,0.0334748476743698,-0.0896163558959965,15.4212326,73.9812722,0.096348256,0.4348388265470496,0.0,0.06557092262619156,-0.0031812376194140864
d3e63cf4-6e69-4aa7-a19d-947dec627d18,4,1767700828419,-2.9280002,7.3510504,-5.7709503,0.039049998,-0.060775,0.00165,0.2124714851379394,0.1687577664852142,-0.020138320922852,15.4212326,73.9812722,0.096348256,0.2720824649171488,0.0,0.0722580477787769,0.0023442327585713107
d3e63cf4-6e69-4aa7-a19d-947dec627d18,4,1767700828429,-2.9280002,7.3510504,-5.7709503,0.039049998,-0.060775,0.00165,0.2124714851379394,0.1687577664852142,-0.020138320922852,15.4212326,73.9812722,0.096348256,0.2720824649171488,0.0,0.0722580477787769,-0.00011048979363958248
d3e63cf4-6e69-4aa7-a19d-947dec627d18,4,1767700828440,-2.1049502,7.1400003,-5.71395,0.0295625,-0.0369875,0.03575,-0.0718488693237304,0.8340203762054443,-0.4633994674682622,15.4212326,73.9812722,0.096348256,0.95681310317054,0.0,0.059330254192106746,-0.017401479031643474
d3e63cf4-6e69-4aa7-a19d-947dec627d18,4,1767700828451,-2.1049502,7.1400003,-5.71395,0.0295625,-0.0369875,0.03575,-0.0718488693237304,0.8340203762054443,-0.4633994674682622,15.4212326,73.9812722,0.096348256,0.95681310317054,0.0,0.059330254192106746,-0.024080985444004346
d3e63cf4-6e69-4aa7-a19d-947dec627d18,4,1767700828462,-2.69805,7.3890004,-5.5800004,0.0070125,-0.0218625,0.062425,0.3236160278320312,0.3851296901702881,-0.1787925338745122,15.4212326,73.9812722,0.096348256,0.533871690474137,0.0,0.0665133421765889,-0.02601873484925737
d3e63cf4-6e69-4aa7-a19d-947dec627d18,4,1767700828473,-2.69805,7.3890004,-5.5800004,0.0070125,-0.0218625,0.062425,0.3236160278320312,0.3851296901702881,-0.1787925338745122,15.4212326,73.9812722,0.096348256,0.533871690474137,0.0,0.0665133421765889,-0.03738989259944934
d3e63cf4-6e69-4aa7-a19d-947dec627d18,4,1767700828483,-2.39205,6.9300003,-5.31195,-0.007425,0.03135,0.1324125,0.201639175415039,0.4718017280101776,-0.7711721038818364,15.4212326,73.9812722,0.096348256,0.9262621882712176,0.0,0.13627554175731607,0.01924615749808949
d3e63cf4-6e69-4aa7-a19d-947dec627d18,4,1767700828494,-2.39205,6.9300003,-5.31195,-0.007425,0.03135,0.1324125,0.201639175415039,0.4718017280101776,-0.7711721038818364,15.4212326,73.9812722,0.096348256,0.9262621882712176,0.0,0.13627554175731607,0.005111946118287866
d3e63cf4-6e69-4aa7-a19d-947dec627d18,4,1767700828505,-2.39205,6.9300003,-5.31195,-0.007425,0.03135,0.1324125,0.201639175415039,0.4718017280101776,-0.7711721038818364,15.4212326,73.9812722,0.096348256,0.9262621882712176,0.0,0.13627554175731607,-0.009115506193756333
d3e63cf4-6e69-4aa7-a19d-947dec627d18,4,1767700828516,-2.65995,7.00605,-5.5420504,-0.01595,0.0922625,0.20019999,0.1304802894592285,0.2225116491317749,-0.4929280853271489,15.4212326,73.9812722,0.096348256,0.556340396916308,0.0,0.22101313852857277,0.06228356752483823
d3e63cf4-6e69-4aa7-a19d-947dec627d18,4,1767700828527,-2.65995,7.00605,-5.5420504,-0.01595,0.0922625,0.20019999,0.1304802894592285,0.2225116491317749,-0.4929280853271489,15.4212326,73.9812722,0.096348256,0.556340396916308,0.0,0.22101313852857277,0.050781623646783715
d3e63cf4-6e69-4aa7-a19d-947dec627d18,4,1767700828538,-2.8900502,7.3890004,-5.6179504,-0.0342375,0.0790625,0.161975,0.3371448516845703,0.1086292266845703,-0.0947719192504887,15.4212326,73.9812722,0.096348256,0.3666724377232625,0.0,0.18346385458040504,0.004390685698400715
d3e63cf4-6e69-4aa7-a19d-947dec627d18,4,1767700828548,-2.8900502,7.3890004,-5.6179504,-0.0342375,0.0790625,0.161975,0.3371448516845703,0.1086292266845703,-0.0947719192504887,15.4212326,73.9812722,0.096348256,0.3666724377232625,0.0,0.18346385458040504,-0.0011584260652640686
d3e63cf4-6e69-4aa7-a19d-947dec627d18,4,1767700828559,-3.1579502,7.4080505,-5.44605,-0.0389125,0.0686125,0.136675,0.5328354835510254,-0.1675972938537597,-0.1043658828735356,15.4212326,73.9812722,0.096348256,0.5682382800781123,0.0,0.1578034012228507,-0.028676579604914994
d3e63cf4-6e69-4aa7-a19d-947dec627d18,4,1767700828570,-3.1579502,7.4080505,-5.44605,-0.0389125,0.0686125,0.136675,0.5328354835510254,-0.1675972938537597,-0.1043658828735356,15.4212326,73.9812722,0.096348256,0.5682382800781123,0.0,0.1578034012228507,-0.02669555863642832
d3e63cf4-6e69-4aa7-a19d-947dec627d18,4,1767700828581,-3.7129502,7.2169504,-5.71395,-0.0506,0.073975,0.124025,0.335355281829834,-0.7742620706558228,0.0797724151611323,15.4212326,73.9812722,0.096348256,0.8475308592187365,0.0,0.15301915321292298,-0.02576436314571849
d3e63cf4-6e69-4aa7-a19d-947dec627d18,4,1767700828592,-3.7129502,7.2169504,-5.71395,-0.0506,0.073975,0.124025,0.335355281829834,-0.7742620706558228,0.0797724151611323,15.4212326,73.9812722,0.096348256,0.8475308592187365,0.0,0.15301915321292298,-0.01665907128877594
d3e63cf4-6e69-4aa7-a19d-947dec627d18,4,1767700828602,-3.7129502,7.2169504,-5.71395,-0.0506,0.073975,0.124025,0.335355281829834,-0.7742620706558228,0.0797724151611323,15.4212326,73.9812722,0.096348256,0.8475308592187365,0.0,0.15301915321292298,-0.004731368140740292
d3e63cf4-6e69-4aa7-a19d-947dec627d18,4,1767700828613,-3.25305,6.9679503,-5.8099504,-0.051975,0.07315,0.100099996,-0.0031862258911132,-0.4661683142185211,-0.1833234405517583,15.4212326,73.9812722,0.096348256,0.5009296687884449,0.0,0.13443337503834388,-0.009335984244718301
d3e63cf4-6e69-4aa7-a19d-947dec627d18,4,1767700828624,-3.25305,6.9679503,-5.8099504,-0.051975,0.07315,0.100099996,-0.0031862258911132,-0.4661683142185211,-0.1833234405517583,15.4212326,73.9812722,0.096348256,0.5009296687884449,0.0,0.13443337503834388,0.005754906549438171
d3e63cf4-6e69-4aa7-a19d-947dec627d18,4,1767700828635,-3.3300002,7.1980505,-5.7910504,-0.0372625,0.091437496,0.1043625,0.1386518478393554,-0.4452050924301147,-0.0008349990844731536,15.4212326,73.9812722,0.096348256,0.4662966935958755,0.0,0.1436692068163878,0.030109206909996387
d3e63cf4-6e69-4aa7-a19d-947dec627d18,4,1767700828646,-3.3300002,7.1980505,-5.7910504,-0.0372625,0.091437496,0.1043625,0.1386518478393554,-0.4452050924301147,-0.0008349990844731536,15.4212326,73.9812722,0.096348256,0.4662966935958755,0.0,0.1436692068163878,0.04408584085007192
d3e63cf4-6e69-4aa7-a19d-947dec627d18,4,1767700828657,-3.177,7.1400003,-5.8290005,-0.0275,0.078925,0.081125,0.0344748497009277,-0.3496599495410919,-0.0669646835327153,15.4212326,73.9812722,0.096348256,0.3576798350698809,0.0,0.11647605440604519,0.02854053229948943
d3e63cf4-6e69-4aa7-a19d-947dec627d18,4,1767700828668,-3.177,7.1400003,-5.8290005,-0.0275,0.078925,0.081125,0.0344748497009277,-0.3496599495410919,-0.0669646835327153,15.4212326,73.9812722,0.096348256,0.3576798350698809,0.0,0.11647605440604519,0.03674333971836083
d3e63cf4-6e69-4aa7-a19d-947dec627d18,4,1767700828679,-3.3300002,7.1790004,-5.6179504,0.00935,0.044825,0.040975,0.2620687484741211,-0.4700246751308441,-0.1198640441894536,15.4212326,73.9812722,0.096348256,0.5513353002013376,0.0,0.06144634854895773,-0.014472801774377082
d3e63cf4-6e69-4aa7-a19d-947dec627d18,4,1767700828690,-3.3300002,7.1790004,-5.6179504,0.00935,0.044825,0.040975,0.2620687484741211,-0.4700246751308441,-0.1198640441894536,15.4212326,73.9812722,0.096348256,0.5513353002013376,0.0,0.06144634854895773,-0.01571740059272209
d3e63cf4-6e69-4aa7-a19d-947dec627d18,4,1767700828701,-3.7510502,6.834,-5.8290005,0.0081124995,0.0202125,-0.0072875,0.0259346961975097,-0.991574764251709,-0.1266494369506841,15.4212326,73.9812722,0.096348256,0.9999666001660328,0.0,0.022966616220886794,-0.0608037800918607
d3e63cf4-6e69-4aa7-a19d-947dec627d18,4,1767700828712,-3.7510502,6.834,-5.8290005,0.0081124995,0.0202125,-0.0072875,0.0259346961975097,-0.991574764251709,-0.1266494369506841,15.4212326,73.9812722,0.096348256,0.9999666001660328,0.0,0.022966616220886794,-0.07265170264189916
d3e63cf4-6e69-4aa7-a19d-947dec627d18,4,1767700828723,-3.3679502,6.87195,-6.078,0.0221375,-0.049775,-0.11495,-0.2439651489257812,-0.6108191609382629,-0.0592952346801762,15.4212326,73.9812722,0.096348256,0.6604051530049408,0.0,0.1272050393311916,0.015058517067230172
d3e63cf4-6e69-4aa7-a19d-947dec627d18,4,1767700828734,-3.3679502,6.87195,-6.078,0.0221375,-0.049775,-0.11495,-0.2439651489257812,-0.6108191609382629,-0.0592952346801762,15.4212326,73.9812722,0.096348256,0.6604051530049408,0.0,0.1272050393311916,-0.0051848353861585865
d3e63cf4-6e69-4aa7-a19d-947dec627d18,4,1767700828745,-3.3679502,6.87195,-6.078,0.0221375,-0.049775,-0.11495,-0.2439651489257812,-0.6108191609382629,-0.0592952346801762,15.4212326,73.9812722,0.096348256,0.6604051530049408,0.0,0.1272050393311916,-0.027860773323384522
d3e63cf4-6e69-4aa7-a19d-947dec627d18,4,1767700828756,-3.34905,6.7570505,-6.288,0.058575,-0.104225,-0.1940125,-0.4491391181945801,-0.593396008014679,-0.0192380523681645,15.4212326,73.9812722,0.096348256,0.7444560917067454,0.0,0.22789192922578458,0.04919011011183274
d3e63cf4-6e69-4aa7-a19d-947dec627d18,4,1767700828767,-3.34905,6.7570505,-6.288,0.058575,-0.104225,-0.1940125,-0.4491391181945801,-0.593396008014679,-0.0192380523681645,15.4212326,73.9812722,0.096348256,0.7444560917067454,0.0,0.22789192922578458,0.026105127446497074
d3e63cf4-6e69-4aa7-a19d-947dec627d18,4,1767700828777,-3.21495,6.7570505,-6.1540504,0.1065625,-0.100375,-0.198275,-0.3646359443664551,-0.4041973948478699,-0.1368613815307622,15.4212326,73.9812722,0.096348256,0.5613073522414704,0.0,0.24646233516756674,0.02353669318612048
d3e63cf4-6e69-4aa7-a19d-947dec627d18,4,1767700828789,-3.21495,6.7570505,-6.1540504,0.1065625,-0.100375,-0.198275,-0.3646359443664551,-0.4041973948478699,-0.1368613815307622,15.4212326,73.9812722,0.096348256,0.5613073522414704,0.0,0.24646233516756674,0.00548630553296086
d3e63cf4-6e69-4aa7-a19d-947dec627d18,4,1767700828799,-3.2340002,6.834,-5.6950502,0.1816375,-0.077825,-0.177925,0.0597171783447265,-0.3105440735816955,-0.3497720336914067,15.4212326,73.9812722,0.096348256,0.4715339209206395,0.0,0.2659064077006231,0.010756446005317444
d3e63cf4-6e69-4aa7-a19d-947dec627d18,4,1767700828810,-3.2340002,6.834,-5.6950502,0.1816375,-0.077825,-0.177925,0.0597171783447265,-0.3105440735816955,-0.3497720336914067,15.4212326,73.9812722,0.096348256,0.4715339209206395,0.0,0.2659064077006231,0.0008383680370738764
d3e63cf4-6e69-4aa7-a19d-947dec627d18,4,1767700828821,-3.4830003,6.8149505,-5.925,0.20625,-0.061049998,-0.17215,-0.0367007255554199,-0.4893989562988281,-0.1435809707641606,15.4212326,73.9812722,0.096348256,0.5113450663184845,0.0,0.27550278992380456,0.004741079804035325
d3e63cf4-6e69-4aa7-a19d-947dec627d18,4,1767700828832,-3.4830003,6.8149505,-5.925,0.20625,-0.061049998,-0.17215,-0.0367007255554199,-0.4893989562988281,-0.1435809707641606,15.4212326,73.9812722,0.096348256,0.5113450663184845,0.0,0.27550278992380456,0.0028771226762787307
d3e63cf4-6e69-4aa7-a19d-947dec627d18,4,1767700828843,-3.6360002,6.7000504,-6.135,0.210375,-0.0389125,-0.16005,-0.1768293380737304,-0.6091574430465698,-0.0454183197021489,15.4212326,73.9812722,0.096348256,0.6359278488847577,0.0,0.26718500291230796,-0.004143882452650531
d3e63cf4-6e69-4aa7-a19d-947dec627d18,4,1767700828854,-3.38805,6.7189503,-6.0010505,0.210375,-0.0389125,-0.16005,-0.1296143531799316,-0.3732303082942962,-0.1933646774291997,15.4212326,73.9812722,0.096348256,0.4398757120562647,0.0,0.26718500291230796,-0.0005125853813933446
d3e63cf4-6e69-4aa7-a19d-947dec627d18,4,1767700828865,-3.38805,6.7189503,-6.0010505,0.210375,-0.0389125,-0.16005,-0.1296143531799316,-0.3732303082942962,-0.1933646774291997,15.4212326,73.9812722,0.096348256,0.4398757120562647,0.0,0.26718500291230796,0.004598472609193791
d3e63cf4-6e69-4aa7-a19d-947dec627d18,5,1767700828875,-3.7710001,6.8149505,-5.886,0.1903,-0.01705,-0.135575,0.1622910499572754,-0.6076937913894653,-0.0676513290405278,15.4212326,73.9812719,0.063676715,0.6326190254098335,0.0,0.23427627520728597,-0.02247977605331118
d3e63cf4-6e69-4aa7-a19d-947dec627d18,5,1767700828886,-3.7710001,6.8149505,-5.886,0.1903,-0.01705,-0.135575,0.1622910499572754,-0.6076937913894653,-0.0676513290405278,15.4212326,73.9812719,0.063676715,0.6326190254098335,0.0,0.23427627520728597,-0.01649511083221536
d3e63cf4-6e69-4aa7-a19d-947dec627d18,5,1767700828897,-3.69405,6.9100504,-6.09705,0.17847499,-0.0163625,-0.1310375,0.0614728927612304,-0.450221985578537,0.107779922485351,15.4212326,73.9812719,0.063676715,0.4670067071613237,0.0,0.222017746741111,-0.0229199387936188
d3e63cf4-6e69-4aa7-a19d-947dec627d18,5,1767700828908,-3.69405,6.9100504,-6.09705,0.17847499,-0.0163625,-0.1310375,0.0614728927612304,-0.450221985578537,0.107779922485351,15.4212326,73.9812719,0.063676715,0.4670067071613237,0.0,0.222017746741111,-0.017261597575122502
d3e63cf4-6e69-4aa7-a19d-947dec627d18,5,1767700828918,-3.6169503,6.681,-6.36495,0.160875,-0.037675,-0.1461625,-0.2539191246032715,-0.4281644821166992,0.0886310958862299,15.4212326,73.9812719,0.063676715,0.5056235919570476,0.0,0.22059838543436805,-0.012967601074364642
d3e63cf4-6e69-4aa7-a19d-947dec627d18,5,1767700828929,-3.6169503,6.681,-6.36495,0.160875,-0.037675,-0.1461625,-0.2539191246032715,-0.4281644821166992,0.0886310958862299,15.4212326,73.9812719,0.063676715,0.5056235919570476,0.0,0.22059838543436805,-0.006782219823211825
d3e63cf4-6e69-4aa7-a19d-947dec627d18,5,1767700828941,-3.21495,6.9300003,-5.9820004,0.17545,-0.039875,-0.1508375,0.1003565788269043,0.095948040485382,-0.1081500625610356,15.4212326,73.9812719,0.063676715,0.1759940493845775,0.0,0.23478643387395703,0.014567536639309488
d3e63cf4-6e69-4aa7-a19d-947dec627d18,5,1767700828951,-3.21495,6.9300003,-5.9820004,0.17545,-0.039875,-0.1508375,0.1003565788269043,0.095948040485382,-0.1081500625610356,15.4212326,73.9812719,0.063676715,0.1759940493845775,0.0,0.23478643387395703,0.023182563433569146
d3e63cf4-6e69-4aa7-a19d-947dec627d18,5,1767700828962,-3.21495,6.9300003,-5.9820004,0.17545,-0.039875,-0.1508375,0.1003565788269043,0.095948040485382,-0.1081500625610356,15.4212326,73.9812719,0.063676715,0.1759940493845775,0.0,0.23478643387395703,0.03358916324272513
d3e63cf4-6e69-4aa7-a19d-947dec627d18,5,1767700828973,-2.94705,6.8910003,-5.9440503,0.1692625,-0.0122375,-0.115775,0.0645728111267089,0.3593973815441131,-0.2512651062011724,15.4212326,73.9812719,0.063676715,0.4432496806449576,0.0,0.20543466342732913,0.016544827371010214
d3e63cf4-6e69-4aa7-a19d-947dec627d18,5,1767700828984,-2.94705,6.8910003,-5.9440503,0.1692625,-0.0122375,-0.115775,0.0645728111267089,0.3593973815441131,-0.2512651062011724,15.4212326,73.9812719,0.063676715,0.4432496806449576,0.0,0.20543466342732913,0.03057880050651243
d3e63cf4-6e69-4aa7-a19d-947dec627d18,5,1767700828994,-3.0619502,6.5850005,-5.886,0.125675,0.0066,-0.076175,0.0063643455505371,0.1505305171012878,-0.4633374786376958,15.4212326,73.9812719,0.063676715,0.487218185809402,0.0,0.1471067512046949,-0.012456681016697845
d3e63cf4-6e69-4aa7-a19d-947dec627d18,5,1767700829005,-3.0619502,6.5850005,-5.886,0.125675,0.0066,-0.076175,0.0063643455505371,0.1505305171012878,-0.4633374786376958,15.4212326,73.9812719,0.063676715,0.487218185809402,0.0,0.1471067512046949,0.0033679620495754643
d3e63cf4-6e69-4aa7-a19d-947dec627d18,5,1767700829015,-3.04305,6.7189503,-6.327,0.0974875,0.031075,-0.028324999,-0.2403130531311035,0.2336173951625824,-0.0979943847656255,15.4212326,73.9812719,0.063676715,0.3491852664035758,0.0,0.10616861047221067,-0.0221218144671454
d3e63cf4-6e69-4aa7-a19d-947dec627d18,5,1767700829026,-3.04305,6.7189503,-6.327,0.0974875,0.031075,-0.028324999,-0.2403130531311035,0.2336173951625824,-0.0979943847656255,15.4212326,73.9812719,0.063676715,0.3491852664035758,0.0,0.10616861047221067,-0.008035537408971446
d3e63cf4-6e69-4aa7-a19d-947dec627d18,5,1767700829037,-3.0240002,6.62295,-6.078,0.0763125,0.0433125,0.0075625,-0.0873141288757324,0.2098390161991119,-0.328518447875977,15.4212326,73.9812719,0.063676715,0.3994753314230808,0.0,0.08807247991711145,-0.014351530658945205
d3e63cf4-6e69-4aa7-a19d-947dec627d18,5,1767700829048,-3.0240002,6.62295,-6.078,0.0763125,0.0433125,0.0075625,-0.0873141288757324,0.2098390161991119,-0.328518447875977,15.4212326,73.9812719,0.063676715,0.3994753314230808,0.0,0.08807247991711145,-0.0056626118265771
d3e63cf4-6e69-4aa7-a19d-947dec627d18,5,1767700829058,-3.0240002,6.62295,-6.078,0.0763125,0.0433125,0.0075625,-0.0873141288757324,0.2098390161991119,-0.328518447875977,15.4212326,73.9812719,0.063676715,0.3994753314230808,0.0,0.08807247991711145,-0.0005905455224798191
d3e63cf4-6e69-4aa7-a19d-947dec627d18,5,1767700829069,-3.0619502,6.8910003,-6.09705,0.073699996,0.0407,0.017324999,0.0696978569030761,0.2842577695846557,-0.1172299957275395,15.4212326,73.9812719,0.063676715,0.3152826394275521,0.0,0.08595542449869012,-0.0014469424673361584
d3e63cf4-6e69-4aa7-a19d-947dec627d18,5,1767700829080,-3.0619502,6.8910003,-6.09705,0.073699996,0.0407,0.017324999,0.0696978569030761,0.2842577695846557,-0.1172299957275395,15.4212326,73.9812719,0.063676715,0.3152826394275521,0.0,0.08595542449869012,-0.0038266128240981925
d3e63cf4-6e69-4aa7-a19d-947dec627d18,5,1767700829091,-3.2340002,6.5280004,-6.11595,0.0748,0.0394625,0.0416625,-0.0836687088012695,-0.0410421714186668,-0.2984433746337895,15.4212326,73.9812719,0.063676715,0.3126553382401064,0.0,0.09427668223107982,-0.0009951054710081633
d3e63cf4-6e69-4aa7-a19d-947dec627d18,5,1767700829101,-3.2340002,6.5280004,-6.11595,0.0748,0.0394625,0.0416625,-0.0836687088012695,-0.0410421714186668,-0.2984433746337895,15.4212326,73.9812719,0.063676715,0.3126553382401064,0.0,0.09427668223107982,-0.008752628339354371
d3e63cf4-6e69-4aa7-a19d-947dec627d18,5,1767700829112,-3.6360002,6.46995,-6.288,0.0941875,0.0419375,0.0510125,-0.114689826965332,-0.4318212270736694,-0.0929980850219731,15.4212326,73.9812719,0.063676715,0.4563682420792462,0.0,0.11503179655534378,0.0030482130876934776
d3e63cf4-6e69-4aa7-a19d-947dec627d18,5,1767700829123,-3.6360002,6.46995,-6.288,0.0941875,0.0419375,0.0510125,-0.114689826965332,-0.4318212270736694,-0.0929980850219731,15.4212326,73.9812719,0.063676715,0.4563682420792462,0.0,0.11503179655534378,-0.005914673979145329
d3e63cf4-6e69-4aa7-a19d-947dec627d18,5,1767700829134,-3.38805,6.4129505,-6.11595,0.1131625,0.0490875,0.0449625,-0.067291259765625,-0.2382860779762268,-0.3258863067626958,15.4212326,73.9812719,0.063676715,0.4092801650869085,0.0,0.13128960533397152,0.0025478937951776224
d3e63cf4-6e69-4aa7-a19d-947dec627d18,5,1767700829144,-3.38805,6.4129505,-6.11595,0.1131625,0.0490875,0.0449625,-0.067291259765625,-0.2382860779762268,-0.3258863067626958,15.4212326,73.9812719,0.063676715,0.4092801650869085,0.0,0.13128960533397152,-0.003048787547379711
d3e63cf4-6e69-4aa7-a19d-947dec627d18,5,1767700829155,-3.4830003,6.5850005,-6.2310004,0.125125,0.0595375,0.031075,-0.0011672973632812,-0.2473666369915008,-0.1013570404052739,15.4212326,73.9812719,0.063676715,0.2673291329416523,0.0,0.14200927841605981,0.00503427167082667
d3e63cf4-6e69-4aa7-a19d-947dec627d18,5,1767700829166,-3.4830003,6.5850005,-6.2310004,0.125125,0.0595375,0.031075,-0.0011672973632812,-0.2473666369915008,-0.1013570404052739,15.4212326,73.9812719,0.063676715,0.2673291329416523,0.0,0.14200927841605981,0.005748862451582856
d3e63cf4-6e69-4aa7-a19d-947dec627d18,5,1767700829177,-3.4830003,6.5850005,-6.2310004,0.125125,0.0595375,0.031075,-0.0011672973632812,-0.2473666369915008,-0.1013570404052739,15.4212326,73.9812719,0.063676715,0.2673291329416523,0.0,0.14200927841605981,0.009769727958971384
d3e63cf4-6e69-4aa7-a19d-947dec627d18,5,1767700829188,-3.1579502,6.66195,-5.8099504,0.1095875,0.0704,0.0198,0.2971124649047851,0.0805599614977836,-0.4283681488037114,15.4212326,73.9812719,0.063676715,0.5275082891366165,0.0,0.131748321265396,0.006333834954595489
d3e63cf4-6e69-4aa7-a19d-947dec627d18,5,1767700829199,-3.1579502,6.66195,-5.8099504,0.1095875,0.0704,0.0198,0.2971124649047851,0.0805599614977836,-0.4283681488037114,15.4212326,73.9812719,0.063676715,0.5275082891366165,0.0,0.131748321265396,0.015032707901042334
d3e63cf4-6e69-4aa7-a19d-947dec627d18,5,1767700829209,-3.1579502,6.66195,-5.8099504,0.1095875,0.0704,0.0198,0.2971124649047851,0.0805599614977836,-0.4283681488037114,15.4212326,73.9812719,0.063676715,0.5275082891366165,0.0,0.131748321265396,0.024325665053617284
d3e63cf4-6e69-4aa7-a19d-947dec627d18,5,1767700829220,-3.1579502,6.9679503,-5.6950502,0.0930875,0.0776875,0.003575,0.5800614356994629,0.2202454507350921,-0.2929845428466802,15.4212326,73.9812719,0.063676715,0.6861627140134504,0.0,0.12129884969569991,0.022257852530207588
d3e63cf4-6e69-4aa7-a19d-947dec627d18,5,1767700829231,-3.2730002,6.60405,-6.0390005,0.034649998,0.068475,-0.0257125,0.1718339920043945,-0.0506853908300399,-0.2830148315429692,15.4212326,73.9812719,0.063676715,0.3349527198352858,0.0,0.08093565742396859,-0.01220885200368179
d3e63cf4-6e69-4aa7-a19d-947dec627d18,5,1767700829242,-3.2730002,6.60405,-6.0390005,0.034649998,0.068475,-0.0257125,0.1718339920043945,-0.0506853908300399,-0.2830148315429692,15.4212326,73.9812719,0.063676715,0.3349527198352858,0.0,0.08093565742396859,-0.010265554502514752
d3e63cf4-6e69-4aa7-a19d-947dec627d18,5,1767700829253,-4.15395,6.1639504,-6.7099504,0.014162499,0.0691625,-0.0400125,-0.3065199851989746,-1.0356076955795288,0.1452307128906245,15.4212326,73.9812719,0.063676715,1.0897383908244402,0.0,0.08114818507166381,-0.013253444043922024
d3e63cf4-6e69-4aa7-a19d-947dec627d18,5,1767700829264,-4.15395,6.1639504,-6.7099504,0.014162499,0.0691625,-0.0400125,-0.3065199851989746,-1.0356076955795288,0.1452307128906245,15.4212326,73.9812719,0.063676715,1.0897383908244402,0.0,0.08114818507166381,-0.022362755906406767
d3e63cf4-6e69-4aa7-a19d-947dec627d18,5,1767700829275,-4.19205,6.2980504,-6.327,0.016224999,0.044825,-0.095425,0.0723514556884765,-0.9754270315170288,0.0039181137084955,15.4212326,73.9812719,0.063676715,0.9781145017682732,0.0,0.10666987317209109,-0.012094438896761272
d3e63cf4-6e69-4aa7-a19d-947dec627d18,5,1767700829286,-4.19205,6.2980504,-6.327,0.016224999,0.044825,-0.095425,0.0723514556884765,-0.9754270315170288,0.0039181137084955,15.4212326,73.9812719,0.063676715,0.9781145017682732,0.0,0.10666987317209109,-0.03315029755081699
d3e63cf4-6e69-4aa7-a19d-947dec627d18,5,1767700829297,-4.19205,6.2980504,-6.327,0.016224999,0.044825,-0.095425,0.0723514556884765,-0.9754270315170288,0.0039181137084955,15.4212326,73.9812719,0.063676715,0.9781145017682732,0.0,0.10666987317209109,-0.05910928424974435
d3e63cf4-6e69-4aa7-a19d-947dec627d18,5,1767700829308,-4.00005,6.5080504,-5.96295,0.0144375,-0.0317625,-0.225225,0.4079093933105469,-0.6574566960334778,-0.1501222229003911,15.4212326,73.9812719,0.063676715,0.7881472337823625,0.0,0.22791138286075138,0.03264352127274353
d3e63cf4-6e69-4aa7-a19d-947dec627d18,5,1767700829319,-4.00005,6.5080504,-5.96295,0.0144375,-0.0317625,-0.225225,0.4079093933105469,-0.6574566960334778,-0.1501222229003911,15.4212326,73.9812719,0.063676715,0.7881472337823625,0.0,0.22791138286075138,0.0013338643056641673
d3e63cf4-6e69-4aa7-a19d-947dec627d18,5,1767700829329,-4.28805,5.9340005,-6.1740003,0.0276375,-0.0523875,-0.280225,0.0117597579956054,-1.110405206680298,-0.2976451492309575,15.4212326,73.9812719,0.063676715,1.1496654512472526,0.0,0.28641636159182665,0.02857638658773159
d3e63cf4-6e69-4aa7-a19d-947dec627d18,5,1767700829340,-4.28805,5.9340005,-6.1740003,0.0276375,-0.0523875,-0.280225,0.0117597579956054,-1.110405206680298,-0.2976451492309575,15.4212326,73.9812719,0.063676715,1.1496654512472526,0.0,0.28641636159182665,-0.0008015219759740536
d3e63cf4-6e69-4aa7-a19d-947dec627d18,5,1767700829351,-4.1730003,5.97195,-6.2310004,0.0594,-0.0760375,-0.346225,-0.0455708503723144,-0.9194332361221312,-0.267666397094727,15.4212326,73.9812719,0.063676715,0.9586863294234164,0.0,0.359418714080458,0.046334430017747875
d3e63cf4-6e69-4aa7-a19d-947dec627d18,5,1767700829362,-4.1730003,5.97195,-6.2310004,0.0594,-0.0760375,-0.346225,-0.0455708503723144,-0.9194332361221312,-0.267666397094727,15.4212326,73.9812719,0.063676715,0.9586863294234164,0.0,0.359418714080458,0.02524993890446959
d3e63cf4-6e69-4aa7-a19d-947dec627d18,5,1767700829373,-3.828,6.3739505,-5.7709503,0.0708125,-0.076175,-0.3546125,0.4211559295654297,-0.3303247392177582,-0.4132838821411138,15.4212326,73.9812719,0.063676715,0.676232443457892,0.0,0.3695498152313163,0.019896867953525677
d3e63cf4-6e69-4aa7-a19d-947dec627d18,5,1767700829384,-3.828,6.3739505,-5.7709503,0.0708125,-0.076175,-0.3546125,0.4211559295654297,-0.3303247392177582,-0.4132838821411138,15.4212326,73.9812719,0.063676715,0.676232443457892,0.0,0.3695498152313163,0.010344146460166657
d3e63cf4-6e69-4aa7-a19d-947dec627d18,5,1767700829395,-3.86595,6.20205,-6.25005,0.0570625,-0.0708125,-0.3381125,-0.0281414985656738,-0.4528359174728393,-0.2043595886230473,15.4212326,73.9812719,0.063676715,0.4976094387741968,0.0,0.35012940710364504,-0.012828476663835247
d3e63cf4-6e69-4aa7-a19d-947dec627d18,5,1767700829406,-3.9619503,6.4510503,-6.5179505,0.0570625,-0.0708125,-0.3381125,-0.0561652183532714,-0.3293834924697876,0.1742453002929682,15.4212326,73.9812719,0.063676715,0.3768414010408781,0.0,0.35012940710364504,-0.011295895291812547
d3e63cf4-6e69-4aa7-a19d-947dec627d18,5,1767700829417,-3.9619503,6.4510503,-6.5179505,0.0570625,-0.0708125,-0.3381125,-0.0561652183532714,-0.3293834924697876,0.1742453002929682,15.4212326,73.9812719,0.063676715,0.3768414010408781,0.0,0.35012940710364504,-0.005264932439086558
d3e63cf4-6e69-4aa7-a19d-947dec627d18,5,1767700829428,-3.6750002,6.4129505,-6.3840003,0.0369875,-0.074525,-0.3081375,-0.0677103996276855,-0.0239065550267696,-0.0436359024047856,15.4212326,73.9812719,0.063676715,0.0840256720869807,0.0,0.31917200642835203,-0.02661884489685157
d3e63cf4-6e69-4aa7-a19d-947dec627d18,5,1767700829439,-3.6750002,6.4129505,-6.3840003,0.0369875,-0.074525,-0.3081375,-0.0677103996276855,-0.0239065550267696,-0.0436359024047856,15.4212326,73.9812719,0.063676715,0.0840256720869807,0.0,0.31917200642835203,-0.014380155421845299
d3e63cf4-6e69-4aa7-a19d-947dec627d18,5,1767700829450,-3.1390502,6.3169503,-6.0589504,0.0441375,-0.079475,-0.28215,-0.0559887886047363,0.4540911018848419,-0.5224214172363286,15.4212326,73.9812719,0.063676715,0.6944477017368765,0.0,0.2964338324672978,-0.02308682548053747
d3e63cf4-6e69-4aa7-a19d-947dec627d18,5,1767700829461,-3.1390502,6.3169503,-6.0589504,0.0441375,-0.079475,-0.28215,-0.0559887886047363,0.4540911018848419,-0.5224214172363286,15.4212326,73.9812719,0.063676715,0.6944477017368765,0.0,0.2964338324672978,-0.007938553048748048
d3e63cf4-6e69-4aa7-a19d-947dec627d18,5,1767700829471,-3.6169503,6.22095,-6.4219503,0.1170125,-0.0529375,-0.2264625,-0.2211489677429199,0.0513640828430652,-0.167772827148438,15.4212326,73.9812719,0.063676715,0.2822992321446305,0.0,0.2603450939978513,-0.028242344154302435
d3e63cf4-6e69-4aa7-a19d-947dec627d18,5,1767700829482,-3.6169503,6.22095,-6.4219503,0.1170125,-0.0529375,-0.2264625,-0.2211489677429199,0.0513640828430652,-0.167772827148438,15.4212326,73.9812719,0.063676715,0.2822992321446305,0.0,0.2603450939978513,-0.012116417915707282
d3e63cf4-6e69-4aa7-a19d-947dec627d18,5,1767700829493,-3.65595,6.1249504,-6.36495,0.1731125,-0.044275,-0.2052875,-0.194347858428955,0.0219261795282363,-0.252001342773438,15.4212326,73.9812719,0.063676715,0.3189929845376563,0.0,0.27216019352120546,0.016009258023038504
d3e63cf4-6e69-4aa7-a19d-947dec627d18,5,1767700829504,-3.65595,6.1249504,-6.36495,0.1731125,-0.044275,-0.2052875,-0.194347858428955,0.0219261795282363,-0.252001342773438,15.4212326,73.9812719,0.063676715,0.3189929845376563,0.0,0.27216019352120546,0.0324222846412337
d3e63cf4-6e69-4aa7-a19d-947dec627d18,5,1767700829515,-3.65595,6.1249504,-6.36495,0.1731125,-0.044275,-0.2052875,-0.194347858428955,0.0219261795282363,-0.252001342773438,15.4212326,73.9812719,0.063676715,0.3189929845376563,0.0,0.27216019352120546,0.04886056897355906
d3e63cf4-6e69-4aa7-a19d-947dec627d18,5,1767700829526,-3.4830003,6.3169503,-6.135,0.14355,-0.02585,-0.1667875,0.0578498840332031,0.321384459733963,-0.3460279083251958,15.4212326,73.9812719,0.063676715,0.4757834521933864,0.0,0.22156916562610876,0.014604051192070694
d3e63cf4-6e69-4aa7-a19d-947dec627d18,5,1767700829536,-3.4830003,6.3169503,-6.135,0.14355,-0.02585,-0.1667875,0.0578498840332031,0.321384459733963,-0.3460279083251958,15.4212326,73.9812719,0.063676715,0.4757834521933864,0.0,0.22156916562610876,0.030622006361680255
d3e63cf4-6e69-4aa7-a19d-947dec627d18,5,1767700829547,-3.7710001,6.432,-6.078,0.11715,-0.0020625,-0.113437496,0.2828207015991211,0.1737630516290664,-0.1963124847412114,15.4212326,73.9812719,0.063676715,0.3856419829709067,0.0,0.16308415589811298,-0.012458549866676959
d3e63cf4-6e69-4aa7-a19d-947dec627d18,5,1767700829558,-3.7710001,6.432,-6.078,0.11715,-0.0020625,-0.113437496,0.2828207015991211,0.1737630516290664,-0.1963124847412114,15.4212326,73.9812719,0.063676715,0.3856419829709067,0.0,0.16308415589811298,0.0019815970402578477
d3e63cf4-6e69-4aa7-a19d-947dec627d18,5,1767700829569,-3.59805,6.03,-6.078,0.0994125,0.0286,-0.052525,0.0197973251342773,0.1360450237989425,-0.5239835357666021,15.4212326,73.9812719,0.063676715,0.5417184954728766,0.0,0.11601586435160495,-0.031962103288179916
d3e63cf4-6e69-4aa7-a19d-947dec627d18,5,1767700829580,-3.59805,6.03,-6.078,0.0994125,0.0286,-0.052525,0.0197973251342773,0.1360450237989425,-0.5239835357666021,15.4212326,73.9812719,0.063676715,0.5417184954728766,0.0,0.11601586435160495,-0.020440768056744666
d3e63cf4-6e69-4aa7-a19d-947dec627d18,5,1767700829591,-3.9619503,5.8759503,-6.5560503,0.074525,0.073425,0.033275,-0.2748770713806152,-0.2368269264698028,-0.1625142669677739,15.4212326,73.9812719,0.063676715,0.3975616737563999,0.0,0.10978356832878042,-0.016919149894059553
d3e63cf4-6e69-4aa7-a19d-947dec627d18,5,1767700829601,-3.9619503,5.8759503,-6.5560503,0.074525,0.073425,0.033275,-0.2748770713806152,-0.2368269264698028,-0.1625142669677739,15.4212326,73.9812719,0.063676715,0.3975616737563999,0.0,0.10978356832878042,-0.008930904499810634
d3e63cf4-6e69-4aa7-a19d-947dec627d18,5,1767700829612,-3.9810002,6.03,-6.078,0.059675,0.0771375,0.0405625,0.2010097503662109,-0.1773175746202469,-0.3718047714233403,15.4212326,73.9812719,0.063676715,0.4583505536864286,0.0,0.10562488313603002,-0.006684595070583399
d3e63cf4-6e69-4aa7-a19d-947dec627d18,5,1767700829623,-3.9810002,6.03,-6.078,0.059675,0.0771375,0.0405625,0.2010097503662109,-0.1773175746202469,-0.3718047714233403,15.4212326,73.9812719,0.063676715,0.4583505536864286,0.0,0.10562488313603002,-0.0015174482529686066
d3e63cf4-6e69-4aa7-a19d-947dec627d18,5,1767700829634,-3.9810002,6.03,-6.078,0.059675,0.0771375,0.0405625,0.2010097503662109,-0.1773175746202469,-0.3718047714233403,15.4212326,73.9812719,0.063676715,0.4583505536864286,0.0,0.10562488313603002,0.0028711594518921416
d3e63cf4-6e69-4aa7-a19d-947dec627d18,5,1767700829645,-3.86595,5.9149504,-6.2310004,0.0598125,0.056375,0.0339625,0.0019288063049316,-0.1484196782112121,-0.3900447463989263,15.4212326,73.9812719,0.063676715,0.4173332306053334,0.0,0.08893327379277118,-0.0097111592865582
d3e63cf4-6e69-4aa7-a19d-947dec627d18,5,1767700829656,-3.86595,5.9149504,-6.2310004,0.0598125,0.056375,0.0339625,0.0019288063049316,-0.1484196782112121,-0.3900447463989263,15.4212326,73.9812719,0.063676715,0.4173332306053334,0.0,0.08893327379277118,-0.005430106169013636
d3e63cf4-6e69-4aa7-a19d-947dec627d18,5,1767700829667,-3.4450502,6.0679502,-6.1540504,0.089375,0.023375,0.02915,0.0149216651916503,0.2783193588256836,-0.5103746032714849,15.4212326,73.9812719,0.063676715,0.5815209001005526,0.0,0.096871067662125,0.007274981336132575
d3e63cf4-6e69-4aa7-a19d-947dec627d18,5,1767700829678,-3.4450502,6.0679502,-6.1540504,0.089375,0.023375,0.02915,0.0149216651916503,0.2783193588256836,-0.5103746032714849,15.4212326,73.9812719,0.063676715,0.5815209001005526,0.0,0.096871067662125,0.012632152297188082
d3e63cf4-6e69-4aa7-a19d-947dec627d18,5,1767700829689,-3.2920501,6.1249504,-5.8290005,0.1082125,0.007425,0.01815,0.2560229301452636,0.4325297176837921,-0.7503476715087896,15.4212326,73.9812719,0.063676715,0.9031341680937832,0.0,0.10997498934416862,0.031529433731085375
d3e63cf4-6e69-4aa7-a19d-947dec627d18,5,1767700829700,-3.2920501,6.1249504,-5.8290005,0.1082125,0.007425,0.01815,0.2560229301452636,0.4325297176837921,-0.7503476715087896,15.4212326,73.9812719,0.063676715,0.9031341680937832,0.0,0.10997498934416862,0.0373395241678377
d3e63cf4-6e69-4aa7-a19d-947dec627d18,5,1767700829711,-3.9619503,6.3739505,-6.0010505,0.0867625,-0.0100375,0.01485,0.5111727714538574,-0.0044177379459142,-0.2143960571289067,15.4212326,73.9812719,0.063676715,0.5543309372539096,0.0,0.0885946122092083,0.021135310425962537
d3e63cf4-6e69-4aa7-a19d-947dec627d18,5,1767700829721,-3.9619503,6.3739505,-6.0010505,0.0867625,-0.0100375,0.01485,0.5111727714538574,-0.0044177379459142,-0.2143960571289067,15.4212326,73.9812719,0.063676715,0.5543309372539096,0.0,0.0885946122092083,0.02487138847274585
d3e63cf4-6e69-4aa7-a19d-947dec627d18,5,1767700829732,-4.24905,6.3360004,-6.09705,0.027775,-0.023924999,0.0066,0.5042786598205566,-0.2594753503799438,-0.0605502700805669,15.4212326,73.9812719,0.063676715,0.5703426684126315,0.0,0.03724803621870556,-0.02503330288170779
d3e63cf4-6e69-4aa7-a19d-947dec627d18,5,1767700829743,-4.24905,6.3360004,-6.09705,0.027775,-0.023924999,0.0066,0.5042786598205566,-0.2594753503799438,-0.0605502700805669,15.4212326,73.9812719,0.063676715,0.5703426684126315,0.0,0.03724803621870556,-0.0266640431470781
d3e63cf4-6e69-4aa7-a19d-947dec627d18,5,1767700829754,-4.24905,6.3360004,-6.09705,0.027775,-0.023924999,0.0066,0.5042786598205566,-0.2594753503799438,-0.0605502700805669,15.4212326,73.9812719,0.063676715,0.5703426684126315,0.0,0.03724803621870556,-0.031950324022949075
d3e63cf4-6e69-4aa7-a19d-947dec627d18,5,1767700829765,-4.44105,6.5659504,-6.2119503,-0.0044,-0.0385,0.0050875,0.5940260887145996,-0.2915087044239044,0.2391361618041987,15.4212326,73.9812719,0.063676715,0.703583984120526,0.0,0.03908315054150573,-0.03934875129276878
d3e63cf4-6e69-4aa7-a19d-947dec627d18,5,1767700829776,-4.44105,6.5659504,-6.2119503,-0.0044,-0.0385,0.0050875,0.5940260887145996,-0.2915087044239044,0.2391361618041987,15.4212326,73.9812719,0.063676715,0.703583984120526,0.0,0.03908315054150573,-0.05247545444058047
d3e63cf4-6e69-4aa7-a19d-947dec627d18,5,1767700829786,-4.4599504,6.9870005,-5.9440503,-0.01375,-0.109175,-0.0462,1.009683609008789,-0.0814303606748581,0.3396315002441401,15.4212326,73.9812719,0.063676715,1.0683826327204762,0.0,0.11934271291117862,0.01116776600512004
d3e63cf4-6e69-4aa7-a19d-947dec627d18,5,1767700829797,-4.4599504,6.9870005,-5.9440503,-0.01375,-0.109175,-0.0462,1.009683609008789,-0.0814303606748581,0.3396315002441401,15.4212326,73.9812719,0.063676715,1.0683826327204762,0.0,0.11934271291117862,-0.00823361541288289
d3e63cf4-6e69-4aa7-a19d-947dec627d18,5,1767700829808,-4.3450503,6.9100504,-5.8669505,-0.0279125,-0.169125,-0.064899996,0.9404878616333008,-0.0052835643291473,0.1982368850708002,15.4212326,73.9812719,0.063676715,0.9611676214553696,0.0,0.18328770488510682,0.03443865361884953
d3e63cf4-6e69-4aa7-a19d-947dec627d18,5,1767700829819,-4.3450503,6.9100504,-5.8669505,-0.0279125,-0.169125,-0.064899996,0.9404878616333008,-0.0052835643291473,0.1982368850708002,15.4212326,73.9812719,0.063676715,0.9611676214553696,0.0,0.18328770488510682,0.01229763466915401
d3e63cf4-6e69-4aa7-a19d-947dec627d18,5,1767700829829,-4.0960503,6.7000504,-5.7520504,-0.0724625,-0.2226125,-0.0281875,0.7614121437072754,0.117921307682991,-0.106355247497559,15.4212326,73.9812719,0.063676715,0.7777951697335503,0.0,0.23580007255883106,0.0427657230876458
d3e63cf4-6e69-4aa7-a19d-947dec627d18,5,1767700829840,-4.0960503,6.7000504,-5.7520504,-0.0724625,-0.2226125,-0.0281875,0.7614121437072754,0.117921307682991,-0.106355247497559,15.4212326,73.9812719,0.063676715,0.7777951697335503,0.0,0.23580007255883106,0.02163077789998591
d3e63cf4-6e69-4aa7-a19d-947dec627d18,6,1767700829852,-4.26795,6.834,-5.3880005,-0.113437496,-0.22659999,0.01595,1.0812768936157229,0.0602919459342956,-0.1779332733154301,15.4212327,73.9812717,0.05833411,1.0974766918547996,0.0,0.25390947888322346,0.020090346634192575
d3e63cf4-6e69-4aa7-a19d-947dec627d18,6,1767700829862,-4.26795,6.834,-5.3880005,-0.113437496,-0.22659999,0.01595,1.0812768936157229,0.0602919459342956,-0.1779332733154301,15.4212327,73.9812717,0.05833411,1.0974766918547996,0.0,0.25390947888322346,0.002221109608081883
d3e63cf4-6e69-4aa7-a19d-947dec627d18,6,1767700829873,-4.26795,6.834,-5.3880005,-0.113437496,-0.22659999,0.01595,1.0812768936157229,0.0602919459342956,-0.1779332733154301,15.4212327,73.9812717,0.05833411,1.0974766918547996,0.0,0.25390947888322346,-0.013851708244272398
d3e63cf4-6e69-4aa7-a19d-947dec627d18,6,1767700829884,-4.26795,5.8960505,-6.4219503,-0.1720125,-0.2303125,0.0405625,-0.2899951934814453,-0.3776448965072632,-0.1149755096435551,15.4212327,73.9812717,0.05833411,0.4898287944967279,0.0,0.2903058115483567,0.008044541303548612
d3e63cf4-6e69-4aa7-a19d-947dec627d18,6,1767700829895,-4.26795,5.8960505,-6.4219503,-0.1720125,-0.2303125,0.0405625,-0.2899951934814453,-0.3776448965072632,-0.1149755096435551,15.4212327,73.9812717,0.05833411,0.4898287944967279,0.0,0.2903058115483567,-0.0052769706190967484
d3e63cf4-6e69-4aa7-a19d-947dec627d18,6,1767700829906,-4.49805,5.32095,-6.0390005,-0.132,-0.246125,0.050325,-0.303837776184082,-0.8672211766242981,-0.6355691528320317,15.4212327,73.9812717,0.05833411,1.1172905224039749,0.0,0.2837853436137956,-0.024421695139970473
d3e63cf4-6e69-4aa7-a19d-947dec627d18,6,1767700829916,-4.49805,5.32095,-6.0390005,-0.132,-0.246125,0.050325,-0.303837776184082,-0.8672211766242981,-0.6355691528320317,15.4212327,73.9812717,0.05833411,1.1172905224039749,0.0,0.2837853436137956,-0.03683510149141226
d3e63cf4-6e69-4aa7-a19d-947dec627d18,6,1767700829927,-4.8240004,5.742,-6.1540504,-0.0694375,-0.292875,0.033275,-0.11138916015625,-0.8817214369773865,-0.1495652770996098,15.4212327,73.9812717,0.05833411,0.9012269467451942,0.0,0.3028276038544868,-0.03041983217763963
d3e63cf4-6e69-4aa7-a19d-947dec627d18,6,1767700829938,-4.8240004,5.742,-6.1540504,-0.0694375,-0.292875,0.033275,-0.11138916015625,-0.8817214369773865,-0.1495652770996098,15.4212327,73.9812717,0.05833411,0.9012269467451942,0.0,0.3028276038544868,-0.043580236560953785
d3e63cf4-6e69-4aa7-a19d-947dec627d18,6,1767700829949,-4.69005,6.1249504,-5.84805,0.0185625,-0.3993,-0.039049998,0.250058650970459,-0.5233806371688843,-0.1469331359863286,15.4212327,73.9812717,0.05833411,0.5983694232990603,0.0,0.4016341105409873,0.041332048608583714
d3e63cf4-6e69-4aa7-a19d-947dec627d18,6,1767700829960,-4.69005,6.1249504,-5.84805,0.0185625,-0.3993,-0.039049998,0.250058650970459,-0.5233806371688843,-0.1469331359863286,15.4212327,73.9812717,0.05833411,0.5983694232990603,0.0,0.4016341105409873,0.026613115772993454
d3e63cf4-6e69-4aa7-a19d-947dec627d18,6,1767700829970,-4.69005,6.1249504,-5.84805,0.0185625,-0.3993,-0.039049998,0.250058650970459,-0.5233806371688843,-0.1469331359863286,15.4212327,73.9812717,0.05833411,0.5983694232990603,0.0,0.4016341105409873,0.011061886921642481
d3e63cf4-6e69-4aa7-a19d-947dec627d18,6,1767700829981,-4.977,6.1639504,-5.7330003,0.0847,-0.4288625,-0.0477125,0.3843741416931152,-0.6777903437614441,-0.0619245147705083,15.4212327,73.9812717,0.05833411,0.7816507381357345,0.0,0.43974267084568897,0.03283151578768517
d3e63cf4-6e69-4aa7-a19d-947dec627d18,6,1767700829992,-4.977,6.1639504,-5.7330003,0.0847,-0.4288625,-0.0477125,0.3843741416931152,-0.6777903437614441,-0.0619245147705083,15.4212327,73.9812717,0.05833411,0.7816507381357345,0.0,0.43974267084568897,0.015776726636637345
d3e63cf4-6e69-4aa7-a19d-947dec627d18,6,1767700830003,-5.6470504,6.62295,-5.6179504,0.1265,-0.435325,-0.044825,0.8438611030578613,-0.9270493984222412,0.4731201553344721,15.4212327,73.9812717,0.05833411,1.3399122470344036,0.0,0.4555429576340743,0.01389481346293809
d3e63cf4-6e69-4aa7-a19d-947dec627d18,6,1767700830013,-5.6470504,6.62295,-5.6179504,0.1265,-0.435325,-0.044825,0.8438611030578613,-0.9270493984222412,0.4731201553344721,15.4212327,73.9812717,0.05833411,1.3399122470344036,0.0,0.4555429576340743,-0.004302968825365975
d3e63cf4-6e69-4aa7-a19d-947dec627d18,6,1767700830024,-5.9539504,6.3360004,-5.484,0.1211375,-0.4544375,-0.0699875,0.8097801208496094,-1.2539734840393066,0.3605684661865229,15.4212327,73.9812717,0.05833411,1.535644152010806,0.0,0.47548500025631724,-0.0029171969808103547
d3e63cf4-6e69-4aa7-a19d-947dec627d18,6,1767700830035,-5.9539504,6.3360004,-5.484,0.1211375,-0.4544375,-0.0699875,0.8097801208496094,-1.2539734840393066,0.3605684661865229,15.4212327,73.9812717,0.05833411,1.535644152010806,0.0,0.47548500025631724,-0.021599694895868694
d3e63cf4-6e69-4aa7-a19d-947dec627d18,6,1767700830045,-5.8960505,5.742,-6.25005,0.09735,-0.4835875,-0.1139875,-0.1841635704040527,-1.3455544710159302,0.4346413040161128,15.4212327,73.9812717,0.05833411,1.4259544587018742,0.0,0.5062875100301212,-0.009270683367279606
d3e63cf4-6e69-4aa7-a19d-947dec627d18,6,1767700830056,-5.8960505,5.742,-6.25005,0.09735,-0.4835875,-0.1139875,-0.1841635704040527,-1.3455544710159302,0.4346413040161128,15.4212327,73.9812717,0.05833411,1.4259544587018742,0.0,0.5062875100301212,-0.027082143189824194
d3e63cf4-6e69-4aa7-a19d-947dec627d18,6,1767700830067,-5.4360003,5.9149504,-5.886,0.138325,-0.4967875,-0.1997875,0.0366649627685546,-0.7894468307495117,0.1175941848754877,15.4212327,73.9812717,0.05833411,0.798998754937577,0.0,0.5530340594732841,0.0030785635942950536
d3e63cf4-6e69-4aa7-a19d-947dec627d18,6,1767700830078,-5.4360003,5.9149504,-5.886,0.138325,-0.4967875,-0.1997875,0.0366649627685546,-0.7894468307495117,0.1175941848754877,15.4212327,73.9812717,0.05833411,0.798998754937577,0.0,0.5530340594732841,-0.011642383687221893
d3e63cf4-6e69-4aa7-a19d-947dec627d18,6,1767700830088,-5.4360003,5.9149504,-5.886,0.138325,-0.4967875,-0.1997875,0.0366649627685546,-0.7894468307495117,0.1175941848754877,15.4212327,73.9812717,0.05833411,0.798998754937577,0.0,0.5530340594732841,-0.023846262534022653
d3e63cf4-6e69-4aa7-a19d-947dec627d18,6,1767700830099,-4.93905,5.9340005,-5.31195,0.1959375,-0.4984375,-0.240625,0.3380002975463867,-0.3117254972457886,-0.4498744583129888,15.4212327,73.9812717,0.05833411,0.6432760022082163,0.0,0.5871386854376911,0.0011509976143168673
d3e63cf4-6e69-4aa7-a19d-947dec627d18,6,1767700830110,-4.93905,5.9340005,-5.31195,0.1959375,-0.4984375,-0.240625,0.3380002975463867,-0.3117254972457886,-0.4498744583129888,15.4212327,73.9812717,0.05833411,0.6432760022082163,0.0,0.5871386854376911,-0.004451259364605383
d3e63cf4-6e69-4aa7-a19d-947dec627d18,6,1767700830121,-5.34105,4.91895,-5.5609503,0.25355,-0.486475,-0.24585,-0.3457937240600586,-1.0285239219665527,-0.7287240600585942,15.4212327,73.9812717,0.05833411,1.307085885994132,0.0,0.6011553464995549,0.007609730109368649
d3e63cf4-6e69-4aa7-a19d-947dec627d18,6,1767700830132,-5.34105,4.91895,-5.5609503,0.25355,-0.486475,-0.24585,-0.3457937240600586,-1.0285239219665527,-0.7287240600585942,15.4212327,73.9812717,0.05833411,1.307085885994132,0.0,0.6011553464995549,0.009097089798962633
d3e63cf4-6e69-4aa7-a19d-947dec627d18,6,1767700830143,-5.379,5.13,-6.2310004,0.2990625,-0.49005,-0.25135,-0.7362279891967773,-0.7120620012283325,-0.1649575805664067,15.4212327,73.9812717,0.05833411,1.0374367205070152,0.0,0.6267090265077168,0.038989242707516414
d3e63cf4-6e69-4aa7-a19d-947dec627d18,6,1767700830153,-5.379,5.13,-6.2310004,0.2990625,-0.49005,-0.25135,-0.7362279891967773,-0.7120620012283325,-0.1649575805664067,15.4212327,73.9812717,0.05833411,1.0374367205070152,0.0,0.6267090265077168,0.04520292152916402
d3e63cf4-6e69-4aa7-a19d-947dec627d18,6,1767700830164,-5.4559503,5.0719504,-6.6139503,0.2541,-0.4670875,-0.251625,-1.024117946624756,-0.5967665910720825,0.0809816741943354,15.4212327,73.9812717,0.05833411,1.1880681648685054,0.0,0.5882624272221114,0.013544676168689759
d3e63cf4-6e69-4aa7-a19d-947dec627d18,6,1767700830175,-5.4559503,5.0719504,-6.6139503,0.2541,-0.4670875,-0.251625,-1.024117946624756,-0.5967665910720825,0.0809816741943354,15.4212327,73.9812717,0.05833411,1.1880681648685054,0.0,0.5882624272221114,0.01939614171652296
d3e63cf4-6e69-4aa7-a19d-947dec627d18,6,1767700830186,-5.4559503,5.0719504,-6.6139503,0.2541,-0.4670875,-0.251625,-1.024117946624756,-0.5967665910720825,0.0809816741943354,15.4212327,73.9812717,0.05833411,1.1880681648685054,0.0,0.5882624272221114,0.02274604523467613
d3e63cf4-6e69-4aa7-a19d-947dec627d18,6,1767700830196,-5.6280003,5.2450504,-7.1689506,0.2481875,-0.4191,-0.2366375,-1.2976722717285156,-0.4036508798599243,0.6174597167968745,15.4212327,73.9812717,0.05833411,1.4926968411206658,0.0,0.5415156060193465,-0.02458649289693232
d3e63cf4-6e69-4aa7-a19d-947dec627d18,6,1767700830207,-5.6280003,5.2450504,-7.1689506,0.2481875,-0.4191,-0.2366375,-1.2976722717285156,-0.4036508798599243,0.6174597167968745,15.4212327,73.9812717,0.05833411,1.4926968411206658,0.0,0.5415156060193465,-0.03022670068256063
d3e63cf4-6e69-4aa7-a19d-947dec627d18,6,1767700830218,-5.6280003,5.2450504,-7.1689506,0.2481875,-0.4191,-0.2366375,-1.2976722717285156,-0.4036508798599243,0.6174597167968745,15.4212327,73.9812717,0.05833411,1.4926968411206658,0.0,0.5415156060193465,-0.04156734137885212
d3e63cf4-6e69-4aa7-a19d-947dec627d18,6,1767700830228,-6.01095,4.5360003,-6.3079505,0.270875,-0.3964125,-0.2371875,-0.9128150939941406,-1.1163482666015625,-0.093126831054688,15.4212327,73.9812717,0.05833411,1.4450389111820252,0.0,0.535512881205952,-0.06467899017324273
d3e63cf4-6e69-4aa7-a19d-947dec627d18,6,1767700830239,-5.4360003,4.21005,-6.0010505,0.356675,-0.395725,-0.2374625,-0.964223861694336,-0.7683615684509277,-0.7674813842773442,15.4212327,73.9812717,0.05833411,1.452286070492097,0.0,0.5832698947796381,-0.039255345652333094
d3e63cf4-6e69-4aa7-a19d-947dec627d18,6,1767700830250,-5.4360003,4.21005,-6.0010505,0.356675,-0.395725,-0.2374625,-0.964223861694336,-0.7683615684509277,-0.7674813842773442,15.4212327,73.9812717,0.05833411,1.452286070492097,0.0,0.5832698947796381,-0.06570382673566665
d3e63cf4-6e69-4aa7-a19d-947dec627d18,6,1767700830261,-5.379,4.479,-6.078,0.6111875,-0.362725,-0.1945625,-0.8433334827423096,-0.4318857192993164,-0.5883164978027349,15.4212327,73.9812717,0.05833411,1.115281551553614,0.0,0.7368677983108639,0.058884100729834105
d3e63cf4-6e69-4aa7-a19d-947dec627d18,6,1767700830271,-5.379,4.479,-6.078,0.6111875,-0.362725,-0.1945625,-0.8433334827423096,-0.4318857192993164,-0.5883164978027349,15.4212327,73.9812717,0.05833411,1.115281551553614,0.0,0.7368677983108639,0.02913180739945533
d3e63cf4-6e69-4aa7-a19d-947dec627d18,6,1767700830282,-5.781,4.5550504,-5.8290005,0.7181625,-0.3388,-0.15455,-0.4421429634094238,-0.6364470720291138,-0.4534431076049809,15.4212327,73.9812717,0.05833411,0.8978674330998766,0.0,0.8089675635686824,0.07261271306775659
d3e63cf4-6e69-4aa7-a19d-947dec627d18,6,1767700830293,-5.781,4.5550504,-5.8290005,0.7181625,-0.3388,-0.15455,-0.4421429634094238,-0.6364470720291138,-0.4534431076049809,15.4212327,73.9812717,0.05833411,0.8978674330998766,0.0,0.8089675635686824,0.0468521516872032
d3e63cf4-6e69-4aa7-a19d-947dec627d18,6,1767700830304,-5.781,4.5550504,-5.8290005,0.7181625,-0.3388,-0.15455,-0.4421429634094238,-0.6364470720291138,-0.4534431076049809,15.4212327,73.9812717,0.05833411,0.8978674330998766,0.0,0.8089675635686824,0.02534810224969357
d3e63cf4-6e69-4aa7-a19d-947dec627d18,6,1767700830315,-6.03,4.49805,-6.1740003,0.7203625,-0.3260125,-0.0996875,-0.5783700942993164,-0.6502772569656372,-0.1170001602172856,15.4212327,73.9812717,0.05833411,0.8781010843846078,0.0,0.7969591452632626,-0.0029573326872871174
d3e63cf4-6e69-4aa7-a19d-947dec627d18,6,1767700830326,-6.03,4.49805,-6.1740003,0.7203625,-0.3260125,-0.0996875,-0.5783700942993164,-0.6502772569656372,-0.1170001602172856,15.4212327,73.9812717,0.05833411,0.8781010843846078,0.0,0.7969591452632626,-0.013598442422251621
d3e63cf4-6e69-4aa7-a19d-947dec627d18,6,1767700830336,-5.7049503,4.5360003,-6.4609504,0.72833747,-0.3257375,-0.072875,-0.7153949737548828,-0.1809178590774536,-0.0980926132202153,15.4212327,73.9812717,0.05833411,0.7444080876611225,0.0,0.8011810998377652,-0.014400546921824055
d3e63cf4-6e69-4aa7-a19d-947dec627d18,6,1767700830348,-5.7049503,4.5360003,-6.4609504,0.72833747,-0.3257375,-0.072875,-0.7153949737548828,-0.1809178590774536,-0.0980926132202153,15.4212327,73.9812717,0.05833411,0.7444080876611225,0.0,0.8011810998377652,-0.014261738927642235
d3e63cf4-6e69-4aa7-a19d-947dec627d18,6,1767700830358,-5.85795,4.45905,-6.25005,0.739475,-0.319,-0.05555,-0.460904598236084,-0.2837061882019043,-0.1679597473144536,15.4212327,73.9812717,0.05833411,0.5666857388510456,0.0,0.8072608488741418,-0.003635553921663947
d3e63cf4-6e69-4aa7-a19d-947dec627d18,6,1767700830369,-5.85795,4.45905,-6.25005,0.739475,-0.319,-0.05555,-0.460904598236084,-0.2837061882019043,-0.1679597473144536,15.4212327,73.9812717,0.05833411,0.5666857388510456,0.0,0.8072608488741418,0.004397983072952209
d3e63cf4-6e69-4aa7-a19d-947dec627d18,6,1767700830380,-6.4510503,4.45905,-6.11595,0.7062,-0.2822875,0.0037125,-0.1384916305541992,-0.669419527053833,0.1115297698974604,15.4212327,73.9812717,0.05833411,0.6926336149133384,0.0,0.7605382668298157,-0.0317533558490204
d3e63cf4-6e69-4aa7-a19d-947dec627d18,6,1767700830391,-6.4510503,4.45905,-6.11595,0.7062,-0.2822875,0.0037125,-0.1384916305541992,-0.669419527053833,0.1115297698974604,15.4212327,73.9812717,0.05833411,0.6926336149133384,0.0,0.7605382668298157,-0.019504183072879704
d3e63cf4-6e69-4aa7-a19d-947dec627d18,6,1767700830402,-5.85795,4.21005,-6.4800005,0.6785625,-0.3185875,-0.0108624995,-0.5815186500549316,-0.1429395675659179,-0.1315732574462895,15.4212327,73.9812717,0.05833411,0.6131126996015246,0.0,0.749708647047563,-0.01709054111119988
d3e63cf4-6e69-4aa7-a19d-947dec627d18,6,1767700830413,-5.85795,4.21005,-6.4800005,0.6785625,-0.3185875,-0.0108624995,-0.5815186500549316,-0.1429395675659179,-0.1315732574462895,15.4212327,73.9812717,0.05833411,0.6131126996015246,0.0,0.749708647047563,-0.0033153898936878518
d3e63cf4-6e69-4aa7-a19d-947dec627d18,6,1767700830424,-5.85795,4.21005,-6.4800005,0.6785625,-0.3185875,-0.0108624995,-0.5815186500549316,-0.1429395675659179,-0.1315732574462895,15.4212327,73.9812717,0.05833411,0.6131126996015246,0.0,0.749708647047563,0.010754214910773732
d3e63cf4-6e69-4aa7-a19d-947dec627d18,6,1767700830435,-5.14905,4.5360003,-6.8440504,0.6334625,-0.3551625,-0.01155,-0.6282215118408203,0.7784786224365234,-0.1700645065307622,15.4212327,73.9812717,0.05833411,1.0146985611065904,0.0,0.7263253697982056,0.0016871182590692821
d3e63cf4-6e69-4aa7-a19d-947dec627d18,6,1767700830446,-5.14905,4.5360003,-6.8440504,0.6334625,-0.3551625,-0.01155,-0.6282215118408203,0.7784786224365234,-0.1700645065307622,15.4212327,73.9812717,0.05833411,1.0146985611065904,0.0,0.7263253697982056,0.016327309513702266
d3e63cf4-6e69-4aa7-a19d-947dec627d18,6,1767700830456,-5.0340004,4.881,-7.38,0.6259,-0.33935,0.0218625,-0.6627368927001953,1.3050715923309326,0.2640919113159174,15.4212327,73.9812717,0.05833411,1.4873387602283483,0.0,0.7123111689467251,0.017399184962009984
d3e63cf4-6e69-4aa7-a19d-947dec627d18,6,1767700830467,-5.0340004,4.881,-7.38,0.6259,-0.33935,0.0218625,-0.6627368927001953,1.3050715923309326,0.2640919113159174,15.4212327,73.9812717,0.05833411,1.4873387602283483,0.0,0.7123111689467251,0.03301328393251011
d3e63cf4-6e69-4aa7-a19d-947dec627d18,6,1767700830478,-5.6850004,4.9960504,-7.5520506,0.571725,-0.3018125,0.0803,-0.4791488647460937,0.9947538375854492,0.8245729827880854,15.4212327,73.9812717,0.05833411,1.3780563979469378,0.0,0.651466308247211,-0.01172236917567262
d3e63cf4-6e69-4aa7-a19d-947dec627d18,6,1767700830489,-5.6850004,4.9960504,-7.5520506,0.571725,-0.3018125,0.0803,-0.4791488647460937,0.9947538375854492,0.8245729827880854,15.4212327,73.9812717,0.05833411,1.3780563979469378,0.0,0.651466308247211,0.004676981868815455
d3e63cf4-6e69-4aa7-a19d-947dec627d18,6,1767700830500,-5.6659503,4.038,-7.2840004,0.5234625,-0.207075,0.1874125,-0.9095139503479004,0.4730913639068603,0.2106813812255854,15.4212327,73.9812717,0.05833411,1.0466220468133742,0.0,0.5933097754862127,-0.03719976470300693
d3e63cf4-6e69-4aa7-a19d-947dec627d18,6,1767700830511,-5.6659503,4.038,-7.2840004,0.5234625,-0.207075,0.1874125,-0.9095139503479004,0.4730913639068603,0.2106813812255854,15.4212327,73.9812717,0.05833411,1.0466220468133742,0.0,0.5933097754862127,-0.021659721265974808
d3e63cf4-6e69-4aa7-a19d-947dec627d18,6,1767700830522,-5.6659503,4.038,-7.2840004,0.5234625,-0.207075,0.1874125,-0.9095139503479004,0.4730913639068603,0.2106813812255854,15.4212327,73.9812717,0.05833411,1.0466220468133742,0.0,0.5933097754862127,-0.007668718108233657
d3e63cf4-6e69-4aa7-a19d-947dec627d18,6,1767700830533,-6.03,3.4450502,-6.5950503,0.5594875,-0.126225,0.231825,-0.7622780799865723,-0.3353900909423828,-0.2690158462524419,15.4212327,73.9812717,0.05833411,0.8751707889693716,0.0,0.6186290034473408,0.029140980261329778
d3e63cf4-6e69-4aa7-a19d-947dec627d18,6,1767700830544,-6.03,3.4450502,-6.5950503,0.5594875,-0.126225,0.231825,-0.7622780799865723,-0.3353900909423828,-0.2690158462524419,15.4212327,73.9812717,0.05833411,0.8751707889693716,0.0,0.6186290034473408,0.03710711658307092
d3e63cf4-6e69-4aa7-a19d-947dec627d18,6,1767700830554,-6.5659504,3.8080502,-6.2119503,0.5445,-0.0697125,0.2366375,-0.0765027999877929,-0.6743838787078857,-0.0252862548828129,15.4212327,73.9812717,0.05833411,0.6791801594224195,0.0,0.5977770395912677,0.01968970939787015
d3e63cf4-6e69-4aa7-a19d-947dec627d18,6,1767700830565,-6.5659504,3.8080502,-6.2119503,0.5445,-0.0697125,0.2366375,-0.0765027999877929,-0.6743838787078857,-0.0252862548828129,15.4212327,73.9812717,0.05833411,0.6791801594224195,0.0,0.5977770395912677,0.01770364790486997
d3e63cf4-6e69-4aa7-a19d-947dec627d18,6,1767700830576,-6.3360004,3.6550503,-7.01595,0.53845,-0.082499996,0.1892,-0.6552419662475586,-0.2329576015472412,0.3015903854370112,15.4212327,73.9812717,0.05833411,0.7580026642688368,0.0,0.5766552625616105,-0.01149039160107679
d3e63cf4-6e69-4aa7-a19d-947dec627d18,6,1767700830587,-6.3360004,3.6550503,-7.01595,0.53845,-0.082499996,0.1892,-0.6552419662475586,-0.2329576015472412,0.3015903854370112,15.4212327,73.9812717,0.05833411,0.7580026642688368,0.0,0.5766552625616105,-0.02599432581132215
d3e63cf4-6e69-4aa7-a19d-947dec627d18,6,1767700830598,-6.2790003,2.832,-6.8820004,0.5809375,-0.1183875,0.1326875,-1.1084940433502195,-0.6207304000854492,-0.1562991714477544,15.4212327,73.9812717,0.05833411,1.2800369934999596,0.0,0.6075441973377328,-0.015992292960309965
d3e63cf4-6e69-4aa7-a19d-947dec627d18,6,1767700830609,-6.2790003,2.832,-6.8820004,0.5809375,-0.1183875,0.1326875,-1.1084940433502195,-0.6207304000854492,-0.1562991714477544,15.4212327,73.9812717,0.05833411,1.2800369934999596,0.0,0.6075441973377328,-0.042781378964337015
d3e63cf4-6e69-4aa7-a19d-947dec627d18,6,1767700830620,-7.485,1.779,-5.71395,0.6749875,-0.179025,0.0543125,-0.9591455459594728,-2.4653773307800293,-0.5990672683715825,15.4212327,73.9812717,0.05833411,2.7123656010007475,0.0,0.7004340964269943,0.018321467317336363
d3e63cf4-6e69-4aa7-a19d-947dec627d18,6,1767700830631,-7.485,1.779,-5.71395,0.6749875,-0.179025,0.0543125,-0.9591455459594728,-2.4653773307800293,-0.5990672683715825,15.4212327,73.9812717,0.05833411,2.7123656010007475,0.0,0.7004340964269943,-0.017195841099262102
d3e63cf4-6e69-4aa7-a19d-947dec627d18,6,1767700830642,-7.485,1.779,-5.71395,0.6749875,-0.179025,0.0543125,-0.9591455459594728,-2.4653773307800293,-0.5990672683715825,15.4212327,73.9812717,0.05833411,2.7123656010007475,0.0,0.7004340964269943,-0.05492090555508942
d3e63cf4-6e69-4aa7-a19d-947dec627d18,6,1767700830653,-7.8300004,1.31895,-5.1010504,0.760375,-0.236775,-0.0193875,-0.8323225975036621,-3.0947227478027344,-0.9331079101562504,15.4212327,73.9812717,0.05833411,3.3377777283814325,0.0,0.7966231332356913,0.0029654019876600005
d3e63cf4-6e69-4aa7-a19d-947dec627d18,6,1767700830663,-7.8300004,1.31895,-5.1010504,0.760375,-0.236775,-0.0193875,-0.8323225975036621,-3.0947227478027344,-0.9331079101562504,15.4212327,73.9812717,0.05833411,3.3377777283814325,0.0,0.7966231332356913,-0.03434566565539217
d3e63cf4-6e69-4aa7-a19d-947dec627d18,6,1767700830674,-6.432,2.085,-5.7910504,0.852775,-0.3663,-0.1920875,-0.7293272018432617,-1.2671477794647217,-1.0283961868286138,15.4212327,73.9812717,0.05833411,1.7875067494794334,0.0,0.9477861036548542,0.08183950136693104
d3e63cf4-6e69-4aa7-a19d-947dec627d18,6,1767700830685,-6.432,2.085,-5.7910504,0.852775,-0.3663,-0.1920875,-0.7293272018432617,-1.2671477794647217,-1.0283961868286138,15.4212327,73.9812717,0.05833411,1.7875067494794334,0.0,0.9477861036548542,0.050168053120183555
d3e63cf4-6e69-4aa7-a19d-947dec627d18,6,1767700830696,-5.9340005,2.6590502,-6.2689505,0.835725,-0.4098875,-0.30415,-0.4840614795684814,-0.2824113368988037,-0.7950902557373052,15.4212327,73.9812717,0.05833411,0.9727487825638284,0.0,0.9792605683786365,0.053790307237463815
d3e63cf4-6e69-4aa7-a19d-947dec627d18,6,1767700830707,-5.9340005,2.6590502,-6.2689505,0.835725,-0.4098875,-0.30415,-0.4840614795684814,-0.2824113368988037,-0.7950902557373052,15.4212327,73.9812717,0.05833411,0.9727487825638284,0.0,0.9792605683786365,0.029783950471638256
d3e63cf4-6e69-4aa7-a19d-947dec627d18,6,1767700830718,-6.03,2.3719501,-6.3079505,0.7404375,-0.4709375,-0.4104375,-0.5915770530700684,-0.3196654319763183,-0.7919564819335942,15.4212327,73.9812717,0.05833411,1.038915043396864,0.0,0.9687562963505063,-0.001294556829073005
d3e63cf4-6e69-4aa7-a19d-947dec627d18,6,1767700830729,-6.03,2.3719501,-6.3079505,0.7404375,-0.4709375,-0.4104375,-0.5915770530700684,-0.3196654319763183,-0.7919564819335942,15.4212327,73.9812717,0.05833411,1.038915043396864,0.0,0.9687562963505063,-0.019178691922374383
d3e63cf4-6e69-4aa7-a19d-947dec627d18,6,1767700830740,-6.0490503,1.31895,-6.7860003,0.66495,-0.5174125,-0.52415,-1.5856058597564695,-0.402369737625122,-0.7709518051147466,15.4212327,73.9812717,0.05833411,1.80842860905822,0.0,0.992273863485404,-0.011764687858497996
d3e63cf4-6e69-4aa7-a19d-947dec627d18,6,1767700830750,-6.0490503,1.31895,-6.7860003,0.66495,-0.5174125,-0.52415,-1.5856058597564695,-0.402369737625122,-0.7709518051147466,15.4212327,73.9812717,0.05833411,1.80842860905822,0.0,0.992273863485404,-0.026981240524652717
d3e63cf4-6e69-4aa7-a19d-947dec627d18,6,1767700830761,-6.0490503,1.31895,-6.7860003,0.66495,-0.5174125,-0.52415,-1.5856058597564695,-0.402369737625122,-0.7709518051147466,15.4212327,73.9812717,0.05833411,1.80842860905822,0.0,0.992273863485404,-0.04201230373605475
d3e63cf4-6e69-4aa7-a19d-947dec627d18,6,1767700830772,-5.99205,1.0320001,-7.3420506,0.709225,-0.499125,-0.5671875,-1.9567279815673828,-0.0159766674041748,-0.4801374053955083,15.4212327,73.9812717,0.05833411,2.014837853478547,0.0,1.0362564964362104,-0.013245114905444798
d3e63cf4-6e69-4aa7-a19d-947dec627d18,6,1767700830783,-5.99205,1.0320001,-7.3420506,0.709225,-0.499125,-0.5671875,-1.9567279815673828,-0.0159766674041748,-0.4801374053955083,15.4212327,73.9812717,0.05833411,2.014837853478547,0.0,1.0362564964362104,-0.028603369744465562
d3e63cf4-6e69-4aa7-a19d-947dec627d18,6,1767700830794,-5.8000503,0.95505005,-6.9199505,0.806575,-0.386925,-0.5842375,-1.6666529178619385,0.0469334125518798,-0.8848424530029302,15.4212327,73.9812717,0.05833411,1.88755949852388,0.0,1.0684604076222244,-0.011441579517244881
d3e63cf4-6e69-4aa7-a19d-947dec627d18,6,1767700830805,-5.8000503,0.95505005,-6.9199505,0.806575,-0.386925,-0.5842375,-1.6666529178619385,0.0469334125518798,-0.8848424530029302,15.4212327,73.9812717,0.05833411,1.88755949852388,0.0,1.0684604076222244,-0.025361751091595892
d3e63cf4-6e69-4aa7-a19d-947dec627d18,6,1767700830816,-5.60895,0.24705002,-6.36495,0.854425,-0.3135,-0.6072,-1.8688769340515137,-0.283088207244873,-1.535875854492188,15.4212327,73.9812717,0.05833411,2.435519363118062,0.0,1.0940823417937975,-0.011522912008771948
d3e63cf4-6e69-4aa7-a19d-947dec627d18,6,1767700830827,-5.60895,0.24705002,-6.36495,0.854425,-0.3135,-0.6072,-1.8688769340515137,-0.283088207244873,-1.535875854492188,15.4212327,73.9812717,0.05833411,2.435519363118062,0.0,1.0940823417937975,-0.020128835751268826
d3e63cf4-6e69-4aa7-a19d-947dec627d18,6,1767700830838,-5.4559503,-0.01995,-6.09705,0.9167125,-0.248325,-0.663575,-1.8347768783569336,-0.3003320693969726,-1.8422389602661136,15.4212327,73.9812717,0.05833411,2.6173364193362407,0.0,1.1586021292515607,0.039824785268635914
d3e63cf4-6e69-4aa7-a19d-947dec627d18,6,1767700830849,-5.4559503,-0.01995,-6.09705,0.9167125,-0.248325,-0.663575,-1.8347768783569336,-0.3003320693969726,-1.8422389602661136,15.4212327,73.9812717,0.05833411,2.6173364193362407,0.0,1.1586021292515607,0.03979610135759645
d3e63cf4-6e69-4aa7-a19d-947dec627d18,7,1767700830860,-5.4559503,-0.01995,-6.09705,0.9167125,-0.248325,-0.663575,-1.8347768783569336,-0.3003320693969726,-1.8422389602661136,15.4212331,73.9812719,0.10844144,2.6173364193362407,0.0,1.1586021292515607,0.04429861390980508
d3e63cf4-6e69-4aa7-a19d-947dec627d18,7,1767700830871,-5.532,-0.46095002,-5.8669505,0.8947125,-0.1219625,-0.7183,-1.9178067445755005,-0.5477397441864014,-1.9832130050659185,15.4212331,73.9812719,0.10844144,2.8126740586785477,0.0,1.1538371631484663,0.047993693143286706
d3e63cf4-6e69-4aa7-a19d-947dec627d18,7,1767700830882,-5.532,-0.46095002,-5.8669505,0.8947125,-0.1219625,-0.7183,-1.9178067445755005,-0.5477397441864014,-1.9832130050659185,15.4212331,73.9812719,0.10844144,2.8126740586785477,0.0,1.1538371631484663,0.05929970070220561
d3e63cf4-6e69-4aa7-a19d-947dec627d18,7,1767700830893,-6.2980504,-0.19305001,-5.46495,0.8584125,0.0210375,-0.695475,-1.15317702293396,-1.04777193069458,-1.616055068969727,15.4212331,73.9812719,0.10844144,2.244833457278519,0.0,1.1049887203892625,0.023078794289322906
d3e63cf4-6e69-4aa7-a19d-947dec627d18,7,1767700830903,-6.2980504,-0.19305001,-5.46495,0.8584125,0.0210375,-0.695475,-1.15317702293396,-1.04777193069458,-1.616055068969727,15.4212331,73.9812719,0.10844144,2.244833457278519,0.0,1.1049887203892625,0.03529793121823119
d3e63cf4-6e69-4aa7-a19d-947dec627d18,7,1767700830914,-6.8149505,0.112950005,-5.3310003,0.7533625,0.197725,-0.6208125,-0.506542444229126,-1.2243945598602295,-1.258968887329102,15.4212331,73.9812719,0.10844144,1.827766381484138,0.0,0.9960212809912748,-0.06353273917344696
d3e63cf4-6e69-4aa7-a19d-947dec627d18,7,1767700830926,-6.8149505,0.112950005,-5.3310003,0.7533625,0.197725,-0.6208125,-0.506542444229126,-1.2243945598602295,-1.258968887329102,15.4212331,73.9812719,0.10844144,1.827766381484138,0.0,0.9960212809912748,-0.056820236153753444
d3e63cf4-6e69-4aa7-a19d-947dec627d18,7,1767700830937,-7.31295,-0.15495001,-5.8099504,0.73535,0.1725625,-0.614625,-0.6018608808517456,-1.3131778240203855,-0.5811277008056646,15.4212331,73.9812719,0.10844144,1.5570426847206955,0.0,0.9737973760137424,-0.07651936081760925
d3e63cf4-6e69-4aa7-a19d-947dec627d18,7,1767700830948,-7.31295,-0.15495001,-5.8099504,0.73535,0.1725625,-0.614625,-0.6018608808517456,-1.3131778240203855,-0.5811277008056646,15.4212331,73.9812719,0.10844144,1.5570426847206955,0.0,0.9737973760137424,-0.07819236542439627
d3e63cf4-6e69-4aa7-a19d-947dec627d18,7,1767700830958,-7.3510504,-0.40305,-6.078,0.7940625,0.089237496,-0.644325,-0.6937432289123535,-1.2022361755371094,-0.3645845031738286,15.4212331,73.9812719,0.10844144,1.4351213709600803,0.0,1.0264761518046097,-0.030568845385689422
d3e63cf4-6e69-4aa7-a19d-947dec627d18,7,1767700830969,-7.3510504,-0.40305,-6.078,0.7940625,0.089237496,-0.644325,-0.6937432289123535,-1.2022361755371094,-0.3645845031738286,15.4212331,73.9812719,0.10844144,1.4351213709600803,0.0,1.0264761518046097,-0.037410898769390924
d3e63cf4-6e69-4aa7-a19d-947dec627d18,7,1767700830980,-7.8300004,-0.30795002,-6.1740003,0.8987,-0.000825,-0.6736125,-0.2820718288421631,-1.272587776184082,0.0805515670776362,15.4212331,73.9812719,0.10844144,1.3059604586962703,0.0,1.1231278514849723,0.05282759500894845
d3e63cf4-6e69-4aa7-a19d-947dec627d18,7,1767700830991,-7.8300004,-0.30795002,-6.1740003,0.8987,-0.000825,-0.6736125,-0.2820718288421631,-1.272587776184082,0.0805515670776362,15.4212331,73.9812719,0.10844144,1.3059604586962703,0.0,1.1231278514849723,0.049427104282906385
d3e63cf4-6e69-4aa7-a19d-947dec627d18,7,1767700831001,-7.8300004,-0.30795002,-6.1740003,0.8987,-0.000825,-0.6736125,-0.2820718288421631,-1.272587776184082,0.0805515670776362,15.4212331,73.9812719,0.10844144,1.3059604586962703,0.0,1.1231278514849723,0.05168265283787162
d3e63cf4-6e69-4aa7-a19d-947dec627d18,7,1767700831012,-7.8109503,-0.09705,-6.729,0.8254125,-0.1711875,-0.6787,-0.0570061206817626,-0.6636605262756348,0.4786390686035151,15.4212331,73.9812719,0.10844144,0.8202379837128226,0.0,1.0822405672088347,0.02108665039539326
d3e63cf4-6e69-4aa7-a19d-947dec627d18,7,1767700831023,-7.8109503,-0.09705,-6.729,0.8254125,-0.1711875,-0.6787,-0.0570061206817626,-0.6636605262756348,0.4786390686035151,15.4212331,73.9812719,0.10844144,0.8202379837128226,0.0,1.0822405672088347,0.04123461368457421
d3e63cf4-6e69-4aa7-a19d-947dec627d18,7,1767700831034,-8.00205,0.95505005,-7.7050505,0.637175,-0.3873375,-0.6479,0.8235907554626465,0.4838733673095703,1.2985700988769526,15.4212331,73.9812719,0.10844144,1.612054425189278,0.0,0.9878242402022994,-0.022146143749725202
d3e63cf4-6e69-4aa7-a19d-947dec627d18,7,1767700831045,-8.00205,0.95505005,-7.7050505,0.637175,-0.3873375,-0.6479,0.8235907554626465,0.4838733673095703,1.2985700988769526,15.4212331,73.9812719,0.10844144,1.612054425189278,0.0,0.9878242402022994,0.01987573290747403
d3e63cf4-6e69-4aa7-a19d-947dec627d18,7,1767700831056,-7.56195,1.9699501,-7.188,0.48894998,-0.4563625,-0.594,1.8955094814300537,1.0623517036437988,0.5827669525146479,15.4212331,73.9812719,0.10844144,2.2497032376225365,0.0,0.8945249098534095,-0.021289343772584134
d3e63cf4-6e69-4aa7-a19d-947dec627d18,7,1767700831066,-7.56195,1.9699501,-7.188,0.48894998,-0.4563625,-0.594,1.8955094814300537,1.0623517036437988,0.5827669525146479,15.4212331,73.9812719,0.10844144,2.2497032376225365,0.0,0.8945249098534095,0.03917238011857082
d3e63cf4-6e69-4aa7-a19d-947dec627d18,7,1767700831077,-6.834,1.491,-7.0930505,0.32615,-0.4752,-0.5113625,1.3256080150604248,1.366234302520752,-0.0317502593994145,15.4212331,73.9812719,0.10844144,1.9039014832571393,0.0,0.7705066313188031,-0.018599650659386794
d3e63cf4-6e69-4aa7-a19d-947dec627d18,7,1767700831088,-6.834,1.491,-7.0930505,0.32615,-0.4752,-0.5113625,1.3256080150604248,1.366234302520752,-0.0317502593994145,15.4212331,73.9812719,0.10844144,1.9039014832571393,0.0,0.7705066313188031,0.05035468488698626
d3e63cf4-6e69-4aa7-a19d-947dec627d18,7,1767700831099,-5.99205,1.0129501,-5.9820004,0.1161875,-0.418275,-0.3667125,1.010553240776062,1.0278770923614502,-1.4053998565673833,15.4212331,73.9812719,0.10844144,2.0131810465738176,0.0,0.568270682366687,-0.08355859028168187
d3e63cf4-6e69-4aa7-a19d-947dec627d18,7,1767700831110,-5.99205,1.0129501,-5.9820004,0.1161875,-0.418275,-0.3667125,1.010553240776062,1.0278770923614502,-1.4053998565673833,15.4212331,73.9812719,0.10844144,2.0131810465738176,0.0,0.568270682366687,-0.019184202615513745
d3e63cf4-6e69-4aa7-a19d-947dec627d18,7,1767700831121,-5.99205,1.0129501,-5.9820004,0.1161875,-0.418275,-0.3667125,1.010553240776062,1.0278770923614502,-1.4053998565673833,15.4212331,73.9812719,0.10844144,2.0131810465738176,0.0,0.568270682366687,0.038221645103953324
d3e63cf4-6e69-4aa7-a19d-947dec627d18,7,1767700831131,-5.59005,1.3960501,-5.19705,-0.124575,-0.3095125,-0.2223375,1.4770487546920776,1.0097272396087646,-2.259786186218262,15.4212331,73.9812719,0.10844144,2.8823351174990446,0.0,0.40093750409197193,-0.08116421105664055
d3e63cf4-6e69-4aa7-a19d-947dec627d18,7,1767700831142,-5.59005,1.3960501,-5.19705,-0.124575,-0.3095125,-0.2223375,1.4770487546920776,1.0097272396087646,-2.259786186218262,15.4212331,73.9812719,0.10844144,2.8823351174990446,0.0,0.40093750409197193,-0.04446044257860076
d3e63cf4-6e69-4aa7-a19d-947dec627d18,7,1767700831153,-5.99205,1.281,-6.576,-0.390775,-0.17847499,-0.07975,1.0343811511993408,1.7244677543640137,-1.0495391464233403,15.4212331,73.9812719,0.10844144,2.2683178396496317,0.0,0.43694219890106756,0.016028367716765895
d3e63cf4-6e69-4aa7-a19d-947dec627d18,7,1767700831164,-5.99205,1.281,-6.576,-0.390775,-0.17847499,-0.07975,1.0343811511993408,1.7244677543640137,-1.0495391464233403,15.4212331,73.9812719,0.10844144,2.2683178396496317,0.0,0.43694219890106756,0.028156511397572647
d3e63cf4-6e69-4aa7-a19d-947dec627d18,7,1767700831175,-6.873,0.68700004,-6.8440504,-0.4497625,-0.0859375,-0.0471625,0.6270947456359863,1.105093002319336,-0.169634399414063,15.4212331,73.9812719,0.10844144,1.281894766836965,0.0,0.4603214764908867,0.051975115353811975
d3e63cf4-6e69-4aa7-a19d-947dec627d18,7,1767700831186,-6.873,0.68700004,-6.8440504,-0.4497625,-0.0859375,-0.0471625,0.6270947456359863,1.105093002319336,-0.169634399414063,15.4212331,73.9812719,0.10844144,1.281894766836965,0.0,0.4603214764908867,0.04210485303245646
d3e63cf4-6e69-4aa7-a19d-947dec627d18,7,1767700831197,-7.3320003,1.3570501,-5.7330003,-0.445225,0.0325875,-0.0213125,1.653099536895752,0.4141879081726074,-0.5599809265136724,15.4212331,73.9812719,0.10844144,1.7938417823822872,0.0,0.44692445495575644,0.010487704795681257
d3e63cf4-6e69-4aa7-a19d-947dec627d18,7,1767700831208,-7.3320003,1.3570501,-5.7330003,-0.445225,0.0325875,-0.0213125,1.653099536895752,0.4141879081726074,-0.5599809265136724,15.4212331,73.9812719,0.10844144,1.7938417823822872,0.0,0.44692445495575644,-0.013699292884140178
d3e63cf4-6e69-4aa7-a19d-947dec627d18,7,1767700831218,-7.3320003,1.3570501,-5.7330003,-0.445225,0.0325875,-0.0213125,1.653099536895752,0.4141879081726074,-0.5599809265136724,15.4212331,73.9812719,0.10844144,1.7938417823822872,0.0,0.44692445495575644,-0.04121769627293354
d3e63cf4-6e69-4aa7-a19d-947dec627d18,7,1767700831229,-7.3320003,1.3570501,-5.7330003,-0.445225,0.0325875,-0.0213125,1.653099536895752,0.4141879081726074,-0.5599809265136724,15.4212331,73.9812719,0.10844144,1.7938417823822872,0.0,0.44692445495575644,-0.06935465125809188
d3e63cf4-6e69-4aa7-a19d-947dec627d18,7,1767700831240,-7.4089503,0.57195,-6.0010505,-0.5435375,0.0946,0.022,0.8084714412689209,0.1284334659576416,-0.2935853576660161,15.4212331,73.9812719,0.10844144,0.8696629167448855,0.0,0.5521468771135539,0.009730766882740199
d3e63cf4-6e69-4aa7-a19d-947dec627d18,7,1767700831251,-7.2559505,0.89805007,-6.6520505,-0.5847875,0.10395,0.01925,0.679527997970581,0.7301206588745117,0.0241369628906245,15.4212331,73.9812719,0.10844144,0.9977059033196308,0.0,0.5942664260718841,0.030076653149565133
d3e63cf4-6e69-4aa7-a19d-947dec627d18,7,1767700831262,-7.2559505,0.89805007,-6.6520505,-0.5847875,0.10395,0.01925,0.679527997970581,0.7301206588745117,0.0241369628906245,15.4212331,73.9812719,0.10844144,0.9977059033196308,0.0,0.5942664260718841,0.01463351545424048
d3e63cf4-6e69-4aa7-a19d-947dec627d18,7,1767700831273,-7.5430503,1.0320001,-6.5179505,-0.6062375,0.12485,0.0202125,0.8319904804229736,0.4724745750427246,0.1665138626098627,15.4212331,73.9812719,0.10844144,0.9711679823889944,0.0,0.6192898950108099,0.032003329592944794
d3e63cf4-6e69-4aa7-a19d-947dec627d18,7,1767700831284,-7.5430503,1.0320001,-6.5179505,-0.6062375,0.12485,0.0202125,0.8319904804229736,0.4724745750427246,0.1665138626098627,15.4212331,73.9812719,0.10844144,0.9711679823889944,0.0,0.6192898950108099,0.033015464646626316
d3e63cf4-6e69-4aa7-a19d-947dec627d18,7,1767700831295,-6.9679503,1.31895,-6.3079505,-0.559075,0.103125,-0.0105875,0.8544948101043701,0.7318294048309326,-0.3857513046264653,15.4212331,73.9812719,0.10844144,1.189344242551971,0.0,0.5686050618894014,-0.007729095318578152
d3e63cf4-6e69-4aa7-a19d-947dec627d18,7,1767700831306,-6.9679503,1.31895,-6.3079505,-0.559075,0.103125,-0.0105875,0.8544948101043701,0.7318294048309326,-0.3857513046264653,15.4212331,73.9812719,0.10844144,1.189344242551971,0.0,0.5686050618894014,0.010800427429822282
d3e63cf4-6e69-4aa7-a19d-947dec627d18,7,1767700831317,-6.25995,1.5300001,-6.5560503,-0.487575,0.052249998,-0.052525,0.6102578639984131,1.3333895206451416,-0.7347970581054692,15.4212331,73.9812719,0.10844144,1.64020394797069,0.0,0.4931716927612533,-0.03840170750849003
d3e63cf4-6e69-4aa7-a19d-947dec627d18,7,1767700831327,-6.25995,1.5300001,-6.5560503,-0.487575,0.052249998,-0.052525,0.6102578639984131,1.3333895206451416,-0.7347970581054692,15.4212331,73.9812719,0.10844144,1.64020394797069,0.0,0.4931716927612533,-0.005820893134009672
d3e63cf4-6e69-4aa7-a19d-947dec627d18,7,1767700831338,-6.222,1.8360001,-7.188,-0.40535,0.0155375,-0.0702625,0.5073306560516357,1.8373866081237793,-0.3169417953491216,15.4212331,73.9812719,0.10844144,1.932311062929961,0.0,0.41168781292685847,-0.050086336225783505
d3e63cf4-6e69-4aa7-a19d-947dec627d18,7,1767700831349,-6.222,1.8360001,-7.188,-0.40535,0.0155375,-0.0702625,0.5073306560516357,1.8373866081237793,-0.3169417953491216,15.4212331,73.9812719,0.10844144,1.932311062929961,0.0,0.41168781292685847,-0.010187414089055293
d3e63cf4-6e69-4aa7-a19d-947dec627d18,7,1767700831360,-6.222,1.8360001,-7.188,-0.40535,0.0155375,-0.0702625,0.5073306560516357,1.8373866081237793,-0.3169417953491216,15.4212331,73.9812719,0.10844144,1.932311062929961,0.0,0.41168781292685847,0.030305319082486657
d3e63cf4-6e69-4aa7-a19d-947dec627d18,7,1767700831371,-6.7960505,1.1080501,-7.01595,-0.3356375,0.0493625,-0.0661375,0.1040360927581787,0.9332549571990968,-0.0245080566406254,15.4212331,73.9812719,0.10844144,0.9393556134783974,0.0,0.34563471573143517,0.00323337208721147
d3e63cf4-6e69-4aa7-a19d-947dec627d18,7,1767700831381,-6.7960505,1.1080501,-7.01595,-0.3356375,0.0493625,-0.0661375,0.1040360927581787,0.9332549571990968,-0.0245080566406254,15.4212331,73.9812719,0.10844144,0.9393556134783974,0.0,0.34563471573143517,0.03868201229847652
d3e63cf4-6e69-4aa7-a19d-947dec627d18,7,1767700831392,-6.5659504,2.04705,-5.8669505,-0.252175,0.0567875,-0.0642125,1.2607553005218506,0.8636019229888916,-0.9000096893310552,15.4212331,73.9812719,0.10844144,1.773507724841884,0.0,0.26634619565051043,-0.01053215493000667
d3e63cf4-6e69-4aa7-a19d-947dec627d18,7,1767700831403,-6.5659504,2.04705,-5.8669505,-0.252175,0.0567875,-0.0642125,1.2607553005218506,0.8636019229888916,-0.9000096893310552,15.4212331,73.9812719,0.10844144,1.773507724841884,0.0,0.26634619565051043,0.012590998305373545
d3e63cf4-6e69-4aa7-a19d-947dec627d18,7,1767700831414,-6.432,1.8360001,-6.2310004,-0.2058375,0.0950125,-0.0405625,0.8411638736724854,1.0134236812591553,-0.7638803100585942,15.4212331,73.9812719,0.10844144,1.5225299170143662,0.0,0.2303079850303719,-0.00851189215744436
d3e63cf4-6e69-4aa7-a19d-947dec627d18,7,1767700831425,-6.432,1.8360001,-6.2310004,-0.2058375,0.0950125,-0.0405625,0.8411638736724854,1.0134236812591553,-0.7638803100585942,15.4212331,73.9812719,0.10844144,1.5225299170143662,0.0,0.2303079850303719,-0.00259843647669694
d3e63cf4-6e69-4aa7-a19d-947dec627d18,7,1767700831436,-6.64305,2.181,-6.6709504,-0.2402125,0.043449998,-0.013062499,0.934274673461914,1.2793779373168943,-0.2769618606567388,15.4212331,73.9812719,0.10844144,1.6082241585749295,0.0,0.24445976430197056,0.008058677600713429
d3e63cf4-6e69-4aa7-a19d-947dec627d18,7,1767700831447,-6.64305,2.181,-6.6709504,-0.2402125,0.043449998,-0.013062499,0.934274673461914,1.2793779373168943,-0.2769618606567388,15.4212331,73.9812719,0.10844144,1.6082241585749295,0.0,0.24445976430197056,-0.004759163663942086
d3e63cf4-6e69-4aa7-a19d-947dec627d18,7,1767700831457,-6.64305,2.181,-6.6709504,-0.2402125,0.043449998,-0.013062499,0.934274673461914,1.2793779373168943,-0.2769618606567388,15.4212331,73.9812719,0.10844144,1.6082241585749295,0.0,0.24445976430197056,-0.026346483706830338
d3e63cf4-6e69-4aa7-a19d-947dec627d18,7,1767700831468,-7.2370505,2.4490502,-5.9050503,-0.27445,0.087037496,0.0669625,1.6071710586547852,0.5930564403533936,-0.306963500976563,15.4212331,73.9812719,0.10844144,1.740385401040232,0.0,0.29560498070262625,-0.004566532824176534
d3e63cf4-6e69-4aa7-a19d-947dec627d18,7,1767700831479,-7.2370505,2.4490502,-5.9050503,-0.27445,0.087037496,0.0669625,1.6071710586547852,0.5930564403533936,-0.306963500976563,15.4212331,73.9812719,0.10844144,1.740385401040232,0.0,0.29560498070262625,-0.04033982351165862
d3e63cf4-6e69-4aa7-a19d-947dec627d18,7,1767700831490,-6.3559504,2.56395,-5.7520504,-0.35805,0.09845,0.141625,1.4178073406219482,1.0383050441741943,-1.0367580032348638,15.4212331,73.9812719,0.10844144,2.0403730485258325,0.0,0.39742904476774216,0.02096646497232381
d3e63cf4-6e69-4aa7-a19d-947dec627d18,7,1767700831501,-6.3559504,2.56395,-5.7520504,-0.35805,0.09845,0.141625,1.4178073406219482,1.0383050441741943,-1.0367580032348638,15.4212331,73.9812719,0.10844144,2.0403730485258325,0.0,0.39742904476774216,-0.0224419727288115
d3e63cf4-6e69-4aa7-a19d-947dec627d18,7,1767700831512,-5.8770003,2.64,-6.2310004,-0.456225,0.113437496,0.2154625,1.0235989093780518,1.572844624519348,-1.0457254028320315,15.4212331,73.9812719,0.10844144,2.1482868891951004,0.0,0.5171396378445574,0.05290149373172331
d3e63cf4-6e69-4aa7-a19d-947dec627d18,7,1767700831522,-5.8770003,2.64,-6.2310004,-0.456225,0.113437496,0.2154625,1.0235989093780518,1.572844624519348,-1.0457254028320315,15.4212331,73.9812719,0.10844144,2.1482868891951004,0.0,0.5171396378445574,0.009476322418388404
d3e63cf4-6e69-4aa7-a19d-947dec627d18,7,1767700831533,-6.2790003,2.8890002,-6.74805,-0.4849625,0.1857625,0.258225,0.9928767681121826,1.6658368110656738,-0.347042617797852,15.4212331,73.9812719,0.10844144,1.970090134061468,0.0,0.5799797267469786,0.03160679435094578
d3e63cf4-6e69-4aa7-a19d-947dec627d18,7,1767700831544,-6.2790003,2.8890002,-6.74805,-0.4849625,0.1857625,0.258225,0.9928767681121826,1.6658368110656738,-0.347042617797852,15.4212331,73.9812719,0.10844144,1.970090134061468,0.0,0.5799797267469786,-0.00481406665106682
d3e63cf4-6e69-4aa7-a19d-947dec627d18,7,1767700831555,-6.7579503,3.17595,-6.6520505,-0.518925,0.219725,0.2825625,1.2937092781066897,1.3610429763793943,0.0124315643310541,15.4212331,73.9812719,0.10844144,1.8778381782258904,0.0,0.6303997126080008,0.014799998810980413
d3e63cf4-6e69-4aa7-a19d-947dec627d18,7,1767700831566,-6.7579503,3.17595,-6.6520505,-0.518925,0.219725,0.2825625,1.2937092781066897,1.3610429763793943,0.0124315643310541,15.4212331,73.9812719,0.10844144,1.8778381782258904,0.0,0.6303997126080008,-0.009332331645818098
d3e63cf4-6e69-4aa7-a19d-947dec627d18,7,1767700831577,-6.7579503,3.17595,-6.6520505,-0.518925,0.219725,0.2825625,1.2937092781066897,1.3610429763793943,0.0124315643310541,15.4212331,73.9812719,0.10844144,1.8778381782258904,0.0,0.6303997126080008,-0.025999629649580445
d3e63cf4-6e69-4aa7-a19d-947dec627d18,7,1767700831588,-7.1599503,2.29605,-6.0390005,-0.5820375,0.1703625,0.2816,0.9135313034057616,0.1536469459533691,-0.210619506835938,15.4212331,73.9812719,0.10844144,0.950003896288242,0.0,0.6686475849148787,0.003582879767175457
d3e63cf4-6e69-4aa7-a19d-947dec627d18,7,1767700831598,-7.1599503,2.29605,-6.0390005,-0.5820375,0.1703625,0.2816,0.9135313034057616,0.1536469459533691,-0.210619506835938,15.4212331,73.9812719,0.10844144,0.950003896288242,0.0,0.6686475849148787,0.003217039860059081
d3e63cf4-6e69-4aa7-a19d-947dec627d18,7,1767700831609,-7.2750006,2.085,-6.2119503,-0.5636125,0.1098625,0.2393875,0.5681173801422119,-0.0485732555389404,-0.0357461547851567,15.4212331,73.9812719,0.10844144,0.5713094663623438,0.0,0.6221215268890395,-0.035308188881242195
d3e63cf4-6e69-4aa7-a19d-947dec627d18,7,1767700831620,-7.2750006,2.085,-6.2119503,-0.5636125,0.1098625,0.2393875,0.5681173801422119,-0.0485732555389404,-0.0357461547851567,15.4212331,73.9812719,0.10844144,0.5713094663623438,0.0,0.6221215268890395,-0.019107585555134303
d3e63cf4-6e69-4aa7-a19d-947dec627d18,7,1767700831631,-6.432,2.43,-6.4030504,-0.564025,-0.0081124995,0.1775125,0.3671422004699707,0.6771738529205322,-0.4461713409423833,15.4212331,73.9812719,0.10844144,0.8901835136214865,0.0,0.5913549703261041,-0.02589265231604681
d3e63cf4-6e69-4aa7-a19d-947dec627d18,7,1767700831641,-6.432,2.43,-6.4030504,-0.564025,-0.0081124995,0.1775125,0.3671422004699707,0.6771738529205322,-0.4461713409423833,15.4212331,73.9812719,0.10844144,0.8901835136214865,0.0,0.5913549703261041,0.005169739566972119
d3e63cf4-6e69-4aa7-a19d-947dec627d18,7,1767700831652,-5.85795,1.932,-5.7709503,-0.5163125,-0.0402875,0.138875,0.0536754131317138,0.3648848533630371,-1.3710351562500005,15.4212331,73.9812719,0.10844144,1.4197744207662315,0.0,0.5361790241491176,-0.012875951243331213
d3e63cf4-6e69-4aa7-a19d-947dec627d18,7,1767700831663,-5.85795,1.932,-5.7709503,-0.5163125,-0.0402875,0.138875,0.0536754131317138,0.3648848533630371,-1.3710351562500005,15.4212331,73.9812719,0.10844144,1.4197744207662315,0.0,0.5361790241491176,0.028973670441498414
d3e63cf4-6e69-4aa7-a19d-947dec627d18,7,1767700831674,-6.183,0.78300005,-6.7099504,-0.4519625,-0.0364375,0.113575,-1.3398830890655518,-0.1077113151550293,-0.7513518905639653,15.4212331,73.9812719,0.10844144,1.5399409349810518,0.0,0.46743670527409376,0.005117959028984661
d3e63cf4-6e69-4aa7-a19d-947dec627d18,7,1767700831685,-6.183,0.78300005,-6.7099504,-0.4519625,-0.0364375,0.113575,-1.3398830890655518,-0.1077113151550293,-0.7513518905639653,15.4212331,73.9812719,0.10844144,1.5399409349810518,0.0,0.46743670527409376,0.051064332784248885
d3e63cf4-6e69-4aa7-a19d-947dec627d18,7,1767700831696,-6.183,0.78300005,-6.7099504,-0.4519625,-0.0364375,0.113575,-1.3398830890655518,-0.1077113151550293,-0.7513518905639653,15.4212331,73.9812719,0.10844144,1.5399409349810518,0.0,0.46743670527409376,0.09588411689520837
d3e63cf4-6e69-4aa7-a19d-947dec627d18,7,1767700831707,-7.524,0.84000003,-8.566951,-0.3223,-0.02145,0.0532125,-1.9926583766937256,-0.059575080871582,1.4476465606689448,15.4212331,73.9812719,0.10844144,2.4637201872544607,0.0,0.3273667097556653,-0.0027540701589959973
d3e63cf4-6e69-4aa7-a19d-947dec627d18,7,1767700831718,-7.524,0.84000003,-8.566951,-0.3223,-0.02145,0.0532125,-1.9926583766937256,-0.059575080871582,1.4476465606689448,15.4212331,73.9812719,0.10844144,2.4637201872544607,0.0,0.3273667097556653,0.033127996975044316
d3e63cf4-6e69-4aa7-a19d-947dec627d18,7,1767700831729,-8.347051,1.9890001,-8.14605,-0.19305,0.0100375,0.0015125,-0.6877751350402832,-0.1210269927978515,2.00100845336914,15.4212331,73.9812719,0.10844144,2.119367122473152,0.0,0.19331668723237527,-0.07245448300059501
d3e63cf4-6e69-4aa7-a19d-947dec627d18,7,1767700831740,-8.347051,1.9890001,-8.14605,-0.19305,0.0100375,0.0015125,-0.6877751350402832,-0.1210269927978515,2.00100845336914,15.4212331,73.9812719,0.10844144,2.119367122473152,0.0,0.19331668723237527,-0.05277497786870995
d3e63cf4-6e69-4aa7-a19d-947dec627d18,7,1767700831751,-5.85795,2.29605,-5.7330003,0.0672375,0.0988625,-0.1434125,0.1750378608703613,0.4599945545196533,-1.3122058486938482,15.4212331,73.9812719,0.10844144,1.4014697400486922,0.0,0.18671320378792175,-0.04920743024827176
d3e63cf4-6e69-4aa7-a19d-947dec627d18,7,1767700831761,-5.85795,2.29605,-5.7330003,0.0672375,0.0988625,-0.1434125,0.1750378608703613,0.4599945545196533,-1.3122058486938482,15.4212331,73.9812719,0.10844144,1.4014697400486922,0.0,0.18671320378792175,-0.04851024242195288
d3e63cf4-6e69-4aa7-a19d-947dec627d18,7,1767700831772,-4.80495,1.0699501,-5.3310003,0.1183875,0.176825,-0.16005,-0.8069512844085693,0.1805453300476074,-2.601105747222901,15.4212331,73.9812719,0.10844144,2.729380534085829,0.0,0.26626806658187535,0.023080118065493115
d3e63cf4-6e69-4aa7-a19d-947dec627d18,7,1767700831783,-4.80495,1.0699501,-5.3310003,0.1183875,0.176825,-0.16005,-0.8069512844085693,0.1805453300476074,-2.601105747222901,15.4212331,73.9812719,0.10844144,2.729380534085829,0.0,0.26626806658187535,0.007978299598790938
d3e63cf4-6e69-4aa7-a19d-947dec627d18,8,1767700831794,-4.80495,1.0699501,-5.3310003,0.1183875,0.176825,-0.16005,-0.8069512844085693,0.1805453300476074,-2.601105747222901,15.4212332,73.9812718,0.078580126,2.729380534085829,0.0,0.26626806658187535,-0.012172592470191423
d3e63cf4-6e69-4aa7-a19d-947dec627d18,8,1767700831805,-5.5129504,1.2420001,-6.25005,0.1406625,0.1252625,-0.21835,-0.9360792636871338,0.2748100757598877,-1.4406171417236333,15.4212332,73.9812718,0.078580126,1.7398685912080178,0.0,0.2883632350222545,-0.012840041333603395
d3e63cf4-6e69-4aa7-a19d-947dec627d18,8,1767700831815,-5.5129504,1.2420001,-6.25005,0.1406625,0.1252625,-0.21835,-0.9360792636871338,0.2748100757598877,-1.4406171417236333,15.4212332,73.9812718,0.078580126,1.7398685912080178,0.0,0.2883632350222545,-0.03568322319144649
d3e63cf4-6e69-4aa7-a19d-947dec627d18,8,1767700831826,-8.137051,1.62495,-7.20795,0.243925,0.0897875,-0.31239998,-0.2892661094665527,-0.65187668800354,1.1580442810058589,15.4212332,73.9812718,0.078580126,1.3600311228860746,0.0,0.40639260363009855,0.061783077974157476
d3e63cf4-6e69-4aa7-a19d-947dec627d18,8,1767700831837,-8.137051,1.62495,-7.20795,0.243925,0.0897875,-0.31239998,-0.2892661094665527,-0.65187668800354,1.1580442810058589,15.4212332,73.9812718,0.078580126,1.3600311228860746,0.0,0.40639260363009855,0.045450184246406324
d3e63cf4-6e69-4aa7-a19d-947dec627d18,8,1767700831848,-9.61095,2.4870002,-8.47095,0.26455,0.08745,-0.3350875,0.2235102653503418,-0.3752274513244629,3.2330765151977534,15.4212332,73.9812718,0.078580126,3.262443291778063,0.0,0.43579563749107214,0.06410439385885482
