session_id,window_id,timestamp,accel_x,accel_y,accel_z,gyro_x,gyro_y,gyro_z,linear_accel_x,linear_accel_y,linear_accel_z,latitude,longitude,speed,vibration_intensity,anomaly_score,raw_magnitude,vibration_only
07041728-71ac-43c0-9f03-c7d63a428574,4,1767702185051,3.00705,-7.3549504,-5.274,0.033,-0.012375,-0.0259875,0.0293731689453125,0.8017432689666748,-0.3068891143798833,15.4211533,73.9811833,0.83282053,0.8589737952418158,0.0,0.04378916282883243,0.011432973940607171
07041728-71ac-43c0-9f03-c7d63a428574,4,1767702185062,3.0259502,-7.3740005,-5.2930503,0.0290125,-0.014712499,-0.021724999,0.0385928153991699,0.788754940032959,-0.2745385742187505,15.4211533,73.9811833,0.83282053,0.8360593217953469,0.0,0.03911723871421655,0.009374872257207153
07041728-71ac-43c0-9f03-c7d63a428574,4,1767702185072,3.0259502,-7.3740005,-5.2930503,0.0290125,-0.014712499,-0.021724999,0.0385928153991699,0.788754940032959,-0.2745385742187505,15.4211533,73.9811833,0.83282053,0.8360593217953469,0.0,0.03911723871421655,0.011416076755481952
07041728-71ac-43c0-9f03-c7d63a428574,4,1767702185083,2.9880002,-7.4689503,-5.235,0.0196625,-0.0133375,-0.0122375,-0.0651841163635253,0.7342233657836914,-0.2405038452148442,15.4211533,73.9811833,0.83282053,0.7753547700581662,0.0,0.026725628500561028,0.0003359949541177645
07041728-71ac-43c0-9f03-c7d63a428574,4,1767702185094,2.9880002,-7.4689503,-5.235,0.0196625,-0.0133375,-0.0122375,-0.0651841163635253,0.7342233657836914,-0.2405038452148442,15.4211533,73.9811833,0.83282053,0.7753547700581662,0.0,0.026725628500561028,0.0007644251483114135
07041728-71ac-43c0-9f03-c7d63a428574,4,1767702185104,2.9880002,-7.4689503,-5.235,0.0196625,-0.0133375,-0.0122375,-0.0651841163635253,0.7342233657836914,-0.2405038452148442,15.4211533,73.9811833,0.83282053,0.7753547700581662,0.0,0.026725628500561028,0.00017799479983567044
07041728-71ac-43c0-9f03-c7d63a428574,4,1767702185115,2.95005,-7.3740005,-5.2540503,0.0111375,-0.0059125,-0.00275,0.0067882537841796,0.6834232807159424,-0.3117566680908208,15.4211533,73.9811833,0.83282053,0.7512028228867823,0.0,0.012905970033283047,-0.015332311499164157
07041728-71ac-43c0-9f03-c7d63a428574,4,1767702185125,2.95005,-7.3740005,-5.2540503,0.0111375,-0.0059125,-0.00275,0.0067882537841796,0.6834232807159424,-0.3117566680908208,15.4211533,73.9811833,0.83282053,0.7512028228867823,0.0,0.012905970033283047,-0.018155222674640016
07041728-71ac-43c0-9f03-c7d63a428574,4,1767702185136,2.7970502,-7.431,-5.274,-0.008525,0.0276375,0.0163625,-0.0306711196899414,0.511269211769104,-0.2918067550659184,15.4211533,73.9811833,0.83282053,0.5894812183506244,0.0,0.03323008332069,-0.0017403777778130767
07041728-71ac-43c0-9f03-c7d63a428574,4,1767702185147,2.7970502,-7.431,-5.274,-0.008525,0.0276375,0.0163625,-0.0306711196899414,0.511269211769104,-0.2918067550659184,15.4211533,73.9811833,0.83282053,0.5894812183506244,0.0,0.03323008332069,-0.006613011050053403
07041728-71ac-43c0-9f03-c7d63a428574,4,1767702185158,2.66295,-7.2780004,-5.31195,-0.0143,0.0424875,0.0270875,0.072021484375,0.3792440891265869,-0.4223266220092778,15.4211533,73.9811833,0.83282053,0.5721651413768585,0.0,0.05237757451906302,0.006890877313118593
07041728-71ac-43c0-9f03-c7d63a428574,4,1767702185168,2.66295,-7.2780004,-5.31195,-0.0143,0.0424875,0.0270875,0.072021484375,0.3792440891265869,-0.4223266220092778,15.4211533,73.9811833,0.83282053,0.5721651413768585,0.0,0.05237757451906302,0.0007204705511038824
07041728-71ac-43c0-9f03-c7d63a428574,4,1767702185179,2.66295,-7.182,-5.31195,-0.02035,0.05555,0.038225,0.1288151741027832,0.3820157051086426,-0.4972825622558599,15.4211533,73.9811833,0.83282053,0.6401713011003671,0.0,0.07043490345702193,0.01235169111544911
07041728-71ac-43c0-9f03-c7d63a428574,4,1767702185190,2.66295,-7.182,-5.31195,-0.02035,0.05555,0.038225,0.1288151741027832,0.3820157051086426,-0.4972825622558599,15.4211533,73.9811833,0.83282053,0.6401713011003671,0.0,0.07043490345702193,0.0059398030864078475
07041728-71ac-43c0-9f03-c7d63a428574,4,1767702185200,2.66295,-7.182,-5.31195,-0.02035,0.05555,0.038225,0.1288151741027832,0.3820157051086426,-0.4972825622558599,15.4211533,73.9811833,0.83282053,0.6401713011003671,0.0,0.07043490345702193,-0.0002163236101521336
07041728-71ac-43c0-9f03-c7d63a428574,4,1767702185211,2.96895,-7.182,-5.3310003,-0.0254375,0.056925,0.0495,0.1863253116607666,0.6586428880691528,-0.4106984710693364,15.4211533,73.9811833,0.83282053,0.7982485890424404,0.0,0.07961012518046935,0.0032490721574360334
07041728-71ac-43c0-9f03-c7d63a428574,4,1767702185222,2.96895,-7.182,-5.3310003,-0.0254375,0.056925,0.0495,0.1863253116607666,0.6586428880691528,-0.4106984710693364,15.4211533,73.9811833,0.83282053,0.7982485890424404,0.0,0.07961012518046935,-0.001890399003901203
07041728-71ac-43c0-9f03-c7d63a428574,4,1767702185232,3.25605,-7.25895,-5.3310003,-0.0323125,0.0600875,0.055825,0.1789813041687011,0.9056860208511353,-0.2778688049316411,15.4211533,73.9811833,0.83282053,0.9641123110723306,0.0,0.08815347944068913,0.00213426625630033
07041728-71ac-43c0-9f03-c7d63a428574,4,1767702185243,3.25605,-7.25895,-5.3310003,-0.0323125,0.0600875,0.055825,0.1789813041687011,0.9056860208511353,-0.2778688049316411,15.4211533,73.9811833,0.83282053,0.9641123110723306,0.0,0.08815347944068913,-0.0017857291333478026
07041728-71ac-43c0-9f03-c7d63a428574,4,1767702185254,3.35205,-7.4500504,-5.31195,-0.061049998,0.0598125,0.0284625,0.0587897300720214,0.9509891271591188,-0.112139282226563,15.4211533,73.9811833,0.83282053,0.9593809310983268,0.0,0.0900819144906457,-0.0032649578811573964
07041728-71ac-43c0-9f03-c7d63a428574,4,1767702185265,3.35205,-7.4500504,-5.31195,-0.061049998,0.0598125,0.0284625,0.0587897300720214,0.9509891271591188,-0.112139282226563,15.4211533,73.9811833,0.83282053,0.9593809310983268,0.0,0.0900819144906457,-0.0062973214880599334
07041728-71ac-43c0-9f03-c7d63a428574,4,1767702185275,3.25605,-7.6800003,-5.2540503,-0.0721875,0.0595375,0.0226875,-0.1487650871276855,0.8021886348724365,0.0146479034423823,15.4211533,73.9811833,0.83282053,0.815997682681678,0.0,0.09628328888623404,-0.0029237469761321223
07041728-71ac-43c0-9f03-c7d63a428574,4,1767702185286,3.25605,-7.6800003,-5.2540503,-0.0721875,0.0595375,0.0226875,-0.1487650871276855,0.8021886348724365,0.0146479034423823,15.4211533,73.9811833,0.83282053,0.815997682681678,0.0,0.09628328888623404,-0.005732946036974381
07041728-71ac-43c0-9f03-c7d63a428574,4,1767702185297,3.3709502,-7.1059504,-5.21595,-0.060225,0.0946,-0.00605,0.1848702430725097,0.9565964937210084,-0.4230561828613286,15.4211533,73.9811833,0.83282053,1.0621819017617529,0.0,0.11230678129569915,0.007317339604795826
07041728-71ac-43c0-9f03-c7d63a428574,4,1767702185307,3.3709502,-7.1059504,-5.21595,-0.060225,0.0946,-0.00605,0.1848702430725097,0.9565964937210084,-0.4230561828613286,15.4211533,73.9811833,0.83282053,1.0621819017617529,0.0,0.11230678129569915,0.0040186720753174095
07041728-71ac-43c0-9f03-c7d63a428574,4,1767702185318,3.3709502,-7.1059504,-5.21595,-0.060225,0.0946,-0.00605,0.1848702430725097,0.9565964937210084,-0.4230561828613286,15.4211533,73.9811833,0.83282053,1.0621819017617529,0.0,0.11230678129569915,0.0002707994965531895
07041728-71ac-43c0-9f03-c7d63a428574,4,1767702185328,3.3709502,-7.3159504,-5.235,-0.0529375,0.109725,-0.0229625,0.0593299865722656,0.892525315284729,-0.2448773956298833,15.4211533,73.9811833,0.83282053,0.9274084454118608,0.0,0.12397270238846937,0.007668573175589049
07041728-71ac-43c0-9f03-c7d63a428574,4,1767702185339,3.3709502,-7.3159504,-5.235,-0.0529375,0.109725,-0.0229625,0.0593299865722656,0.892525315284729,-0.2448773956298833,15.4211533,73.9811833,0.83282053,0.9274084454118608,0.0,0.12397270238846937,0.0028745817613057847
07041728-71ac-43c0-9f03-c7d63a428574,4,1767702185349,3.4290001,-7.3350005,-5.2540503,-0.04675,0.115775,-0.0394625,0.0613341331481933,0.8941103219985962,-0.1994748687744145,15.4211533,73.9811833,0.83282053,0.9181423457536656,0.0,0.13094541622848047,0.004597051342956921
07041728-71ac-43c0-9f03-c7d63a428574,4,1767702185360,3.4290001,-7.3350005,-5.2540503,-0.04675,0.115775,-0.0394625,0.0613341331481933,0.8941103219985962,-0.1994748687744145,15.4211533,73.9811833,0.83282053,0.9181423457536656,0.0,0.13094541622848047,-0.0009597853458805785
07041728-71ac-43c0-9f03-c7d63a428574,4,1767702185370,3.4290001,-7.3350005,-5.2540503,-0.04675,0.115775,-0.0394625,0.0613341331481933,0.8941103219985962,-0.1994748687744145,15.4211533,73.9811833,0.83282053,0.9181423457536656,0.0,0.13094541622848047,-0.006595318896918741
07041728-71ac-43c0-9f03-c7d63a428574,4,1767702185381,3.2950501,-7.2970505,-5.2930503,-0.0308,0.1054625,-0.0787875,0.0824432373046875,0.7160295248031616,-0.2391486740112309,15.4211533,73.9811833,0.83282053,0.7593992731419016,0.0,0.13519781456258825,-0.007761606820584216
07041728-71ac-43c0-9f03-c7d63a428574,4,1767702185391,3.2950501,-7.2970505,-5.2930503,-0.0308,0.1054625,-0.0787875,0.0824432373046875,0.7160295248031616,-0.2391486740112309,15.4211533,73.9811833,0.83282053,0.7593992731419016,0.0,0.13519781456258825,-0.012621031445904674
07041728-71ac-43c0-9f03-c7d63a428574,4,1767702185402,3.141,-7.25895,-5.3689504,-0.0224125,0.089375,-0.111375,0.126061201095581,0.5100271701812744,-0.2649560546875005,15.4211533,73.9811833,0.83282053,0.5884053463900077,0.0,0.14454965031521175,-0.0072112456998039975
07041728-71ac-43c0-9f03-c7d63a428574,4,1767702185412,3.141,-7.25895,-5.3689504,-0.0224125,0.089375,-0.111375,0.126061201095581,0.5100271701812744,-0.2649560546875005,15.4211533,73.9811833,0.83282053,0.5884053463900077,0.0,0.14454965031521175,-0.009902067983491376
07041728-71ac-43c0-9f03-c7d63a428574,4,1767702185423,3.04605,-7.4890504,-5.235,-0.01375,0.0741125,-0.1431375,-0.14359712600708,0.391230821609497,-0.1873260116577153,15.4211533,73.9811833,0.83282053,0.4569165405392125,0.0,0.16177165716682265,0.006144877124621588
07041728-71ac-43c0-9f03-c7d63a428574,4,1767702185433,3.04605,-7.4890504,-5.235,-0.01375,0.0741125,-0.1431375,-0.14359712600708,0.391230821609497,-0.1873260116577153,15.4211533,73.9811833,0.83282053,0.4569165405392125,0.0,0.16177165716682265,0.006636208379626921
07041728-71ac-43c0-9f03-c7d63a428574,4,1767702185444,2.96895,-7.39305,-5.235,-0.0,0.0592625,-0.1530375,-0.1024909019470214,0.2855657339096069,-0.2818799591064458,15.4211533,73.9811833,0.83282053,0.4141358288183938,0.0,0.1641113046456581,0.01113300293208094
07041728-71ac-43c0-9f03-c7d63a428574,4,1767702185455,2.96895,-7.39305,-5.235,-0.0,0.0592625,-0.1530375,-0.1024909019470214,0.2855657339096069,-0.2818799591064458,15.4211533,73.9811833,0.83282053,0.4141358288183938,0.0,0.1641113046456581,0.014781028108005391
07041728-71ac-43c0-9f03-c7d63a428574,4,1767702185466,2.8540502,-7.1250005,-5.235,0.0143,0.0240625,-0.1463,0.0350420475006103,0.1724846363067627,-0.5210033035278325,15.4211533,73.9811833,0.83282053,0.5499303020763868,0.0,0.14895363005395337,0.004409635397762517
07041728-71ac-43c0-9f03-c7d63a428574,4,1767702185476,2.8540502,-7.1250005,-5.235,0.0143,0.0240625,-0.1463,0.0350420475006103,0.1724846363067627,-0.5210033035278325,15.4211533,73.9811833,0.83282053,0.5499303020763868,0.0,0.14895363005395337,0.009823598679574962
07041728-71ac-43c0-9f03-c7d63a428574,4,1767702185487,2.8540502,-7.1250005,-5.235,0.0143,0.0240625,-0.1463,0.0350420475006103,0.1724846363067627,-0.5210033035278325,15.4211533,73.9811833,0.83282053,0.5499303020763868,0.0,0.14895363005395337,0.015239418023786396
07041728-71ac-43c0-9f03-c7d63a428574,4,1767702185497,2.7580502,-7.25895,-5.31195,0.033825,-0.0209,-0.114675,-0.0117149353027343,0.0110594034194946,-0.4017186737060552,15.4211533,73.9811833,0.83282053,0.4020415935165097,0.0,0.12137255146860843,-0.0076030746722008085
07041728-71ac-43c0-9f03-c7d63a428574,4,1767702185508,2.7580502,-7.25895,-5.31195,0.033825,-0.0209,-0.114675,-0.0117149353027343,0.0110594034194946,-0.4017186737060552,15.4211533,73.9811833,0.83282053,0.4020415935165097,0.0,0.12137255146860843,-0.004199801401367396
07041728-71ac-43c0-9f03-c7d63a428574,4,1767702185518,2.6430001,-7.3549504,-5.3310003,0.0364375,-0.049775,-0.0853875,-0.0750875473022461,-0.132442831993103,-0.3507648086547856,15.4211533,73.9811833,0.83282053,0.3823809546732796,0.0,0.10533882089476795,-0.018725460077163563
07041728-71ac-43c0-9f03-c7d63a428574,4,1767702185529,2.6430001,-7.3549504,-5.3310003,0.0364375,-0.049775,-0.0853875,-0.0750875473022461,-0.132442831993103,-0.3507648086547856,15.4211533,73.9811833,0.83282053,0.3823809546732796,0.0,0.10533882089476795,-0.01950457646176011
07041728-71ac-43c0-9f03-c7d63a428574,4,1767702185540,2.7199502,-7.4689503,-5.3310003,0.0323125,-0.120037496,-0.0004125,-0.1297802925109863,-0.0823688507080078,-0.240292129516602,15.4211533,73.9811833,0.83282053,0.2852505204181382,0.0,0.12431117511491079,-0.003770075498512048
07041728-71ac-43c0-9f03-c7d63a428574,4,1767702185550,2.7199502,-7.4689503,-5.3310003,0.0323125,-0.120037496,-0.0004125,-0.1297802925109863,-0.0823688507080078,-0.240292129516602,15.4211533,73.9811833,0.83282053,0.2852505204181382,0.0,0.12431117511491079,-0.009389872815823779
07041728-71ac-43c0-9f03-c7d63a428574,4,1767702185561,2.835,-7.3740005,-5.3310003,0.029975,-0.148225,0.0328625,-0.046600341796875,0.0541425943374633,-0.279650268554688,15.4211533,73.9811833,0.83282053,0.288630014170193,0.0,0.15475495196034922,0.013376499132873641
07041728-71ac-43c0-9f03-c7d63a428574,4,1767702185571,2.835,-7.3740005,-5.3310003,0.029975,-0.148225,0.0328625,-0.046600341796875,0.0541425943374633,-0.279650268554688,15.4211533,73.9811833,0.83282053,0.288630014170193,0.0,0.15475495196034922,0.0041836613006946965
07041728-71ac-43c0-9f03-c7d63a428574,4,1767702185582,2.835,-7.3740005,-5.3310003,0.029975,-0.148225,0.0328625,-0.046600341796875,0.0541425943374633,-0.279650268554688,15.4211533,73.9811833,0.83282053,0.288630014170193,0.0,0.15475495196034922,-0.005819776888855017
07041728-71ac-43c0-9f03-c7d63a428574,4,1767702185593,2.7970502,-7.2970505,-5.3689504,0.0276375,-0.1599125,0.0526625,0.0287051200866699,0.0419877767562866,-0.3287816619873052,15.4211533,73.9811833,0.83282053,0.3326925586412484,0.0,0.17061412007436547,1.8544456390213013e-05
07041728-71ac-43c0-9f03-c7d63a428574,4,1767702185603,2.7970502,-7.2970505,-5.3689504,0.0276375,-0.1599125,0.0526625,0.0287051200866699,0.0419877767562866,-0.3287816619873052,15.4211533,73.9811833,0.83282053,0.3326925586412484,0.0,0.17061412007436547,-0.009223228406887572
07041728-71ac-43c0-9f03-c7d63a428574,4,1767702185614,2.7580502,-7.4119506,-5.3880005,0.014712499,-0.1786125,0.0807125,-0.0290956497192382,0.0145928859710693,-0.2406020736694341,15.4211533,73.9811833,0.83282053,0.2427938776155219,0.0,0.19655378510556595,0.008967081656512367
07041728-71ac-43c0-9f03-c7d63a428574,4,1767702185625,2.7580502,-7.4119506,-5.3880005,0.014712499,-0.1786125,0.0807125,-0.0290956497192382,0.0145928859710693,-0.2406020736694341,15.4211533,73.9811833,0.83282053,0.2427938776155219,0.0,0.19655378510556595,0.003262149061591688
07041728-71ac-43c0-9f03-c7d63a428574,4,1767702185636,2.835,-7.4890504,-5.2930503,0.006875,-0.1871375,0.0919875,-0.1324706077575683,0.1393412351608276,-0.2129951095581059,15.4211533,73.9811833,0.83282053,0.286934414860738,0.0,0.20863702856276498,0.012014455204943037
07041728-71ac-43c0-9f03-c7d63a428574,4,1767702185646,2.835,-7.4890504,-5.2930503,0.006875,-0.1871375,0.0919875,-0.1324706077575683,0.1393412351608276,-0.2129951095581059,15.4211533,73.9811833,0.83282053,0.286934414860738,0.0,0.20863702856276498,0.01112790546802749
07041728-71ac-43c0-9f03-c7d63a428574,4,1767702185657,2.835,-7.4890504,-5.2930503,0.006875,-0.1871375,0.0919875,-0.1324706077575683,0.1393412351608276,-0.2129951095581059,15.4211533,73.9811833,0.83282053,0.286934414860738,0.0,0.20863702856276498,0.012489212535814895
07041728-71ac-43c0-9f03-c7d63a428574,4,1767702185668,2.835,-7.5840006,-5.2930503,0.013612499,-0.166375,0.0946,-0.1822142601013183,0.164039134979248,-0.1399121856689458,15.4211533,73.9811833,0.83282053,0.2822876088100086,0.0,0.1918726159565898,-0.001106873452988314
07041728-71ac-43c0-9f03-c7d63a428574,4,1767702185679,2.835,-7.5840006,-5.2930503,0.013612499,-0.166375,0.0946,-0.1822142601013183,0.164039134979248,-0.1399121856689458,15.4211533,73.9811833,0.83282053,0.2822876088100086,0.0,0.1918726159565898,0.003233985447668097
07041728-71ac-43c0-9f03-c7d63a428574,4,1767702185689,2.6430001,-7.6800003,-5.2930503,0.0210375,-0.14533749,0.0952875,-0.2555556297302246,0.0050196647644042,-0.1188207244873051,15.4211533,73.9811833,0.83282053,0.2818727398824632,0.0,0.17505790488292752,-0.008822604828832337
07041728-71ac-43c0-9f03-c7d63a428574,4,1767702185700,2.6430001,-7.6800003,-5.2930503,0.0210375,-0.14533749,0.0952875,-0.2555556297302246,0.0050196647644042,-0.1188207244873051,15.4211533,73.9811833,0.83282053,0.2818727398824632,0.0,0.17505790488292752,-0.004436829801397614
07041728-71ac-43c0-9f03-c7d63a428574,4,1767702185711,2.4709501,-7.6039505,-5.3500504,0.028875,-0.1252625,0.10505,-0.1727209091186523,-0.1257840394973755,-0.1921487426757817,15.4211533,73.9811833,0.83282053,0.2873591417563305,0.0,0.16601193340013243,-0.010203579794047032
07041728-71ac-43c0-9f03-c7d63a428574,4,1767702185722,2.4709501,-7.6039505,-5.3500504,0.028875,-0.1252625,0.10505,-0.1727209091186523,-0.1257840394973755,-0.1921487426757817,15.4211533,73.9811833,0.83282053,0.2873591417563305,0.0,0.16601193340013243,-0.008627261204755153
07041728-71ac-43c0-9f03-c7d63a428574,4,1767702185733,2.26005,-7.4119506,-5.2930503,0.044275,-0.103675,0.13213749,-0.1157522201538086,-0.2465925216674804,-0.4298596954345708,15.4211533,73.9811833,0.83282053,0.508906480575719,0.0,0.17369253729939033,-0.0014660458667114147
07041728-71ac-43c0-9f03-c7d63a428574,4,1767702185744,2.26005,-7.4119506,-5.2930503,0.044275,-0.103675,0.13213749,-0.1157522201538086,-0.2465925216674804,-0.4298596954345708,15.4211533,73.9811833,0.83282053,0.508906480575719,0.0,0.17369253729939033,-0.004228769587039178
07041728-71ac-43c0-9f03-c7d63a428574,4,1767702185754,2.1070502,-7.431,-5.31195,0.0427625,-0.107525,0.1452,-0.1172771453857421,-0.358218789100647,-0.4433475112915044,15.4211533,73.9811833,0.83282053,0.5819206522052065,0.0,0.18566986032000454,0.002853307516289072
07041728-71ac-43c0-9f03-c7d63a428574,4,1767702185765,2.1070502,-7.431,-5.31195,0.0427625,-0.107525,0.1452,-0.1172771453857421,-0.358218789100647,-0.4433475112915044,15.4211533,73.9811833,0.83282053,0.5819206522052065,0.0,0.18566986032000454,-0.0038213016326469574
07041728-71ac-43c0-9f03-c7d63a428574,4,1767702185776,2.1070502,-7.431,-5.31195,0.0427625,-0.107525,0.1452,-0.1172771453857421,-0.358218789100647,-0.4433475112915044,15.4211533,73.9811833,0.83282053,0.5819206522052065,0.0,0.18566986032000454,-0.011722934733061258
07041728-71ac-43c0-9f03-c7d63a428574,4,1767702185786,1.7820001,-7.3549504,-5.3689504,0.03575,-0.122237496,0.1601875,-0.056887149810791,-0.6311230063438416,-0.5528455352783208,15.4211533,73.9811833,0.83282053,0.8409462425311485,0.0,0.20464628773715887,-0.0011886339805564842
07041728-71ac-43c0-9f03-c7d63a428574,4,1767702185797,1.7820001,-7.3549504,-5.3689504,0.03575,-0.122237496,0.1601875,-0.056887149810791,-0.6311230063438416,-0.5528455352783208,15.4211533,73.9811833,0.83282053,0.8409462425311485,0.0,0.20464628773715887,-0.009429676509366748
07041728-71ac-43c0-9f03-c7d63a428574,4,1767702185808,2.2800002,-7.66095,-5.3689504,0.032175,-0.15619999,0.179025,-0.1524319648742675,-0.1428641080856323,-0.1834455108642583,15.4211533,73.9811833,0.83282053,0.2780250218069983,0.0,0.2397574151637444,0.018354170527235664
07041728-71ac-43c0-9f03-c7d63a428574,4,1767702185818,2.2800002,-7.66095,-5.3689504,0.032175,-0.15619999,0.179025,-0.1524319648742675,-0.1428641080856323,-0.1834455108642583,15.4211533,73.9811833,0.83282053,0.2780250218069983,0.0,0.2397574151637444,0.012545728163595135
07041728-71ac-43c0-9f03-c7d63a428574,4,1767702185829,2.60505,-7.5270004,-5.1780005,0.0367125,-0.183975,0.1676125,-0.1539187431335449,0.2880831956863403,-0.3154197311401372,15.4211533,73.9811833,0.83282053,0.4540622357311615,0.0,0.2515721734164969,0.020504398664949297
07041728-71ac-43c0-9f03-c7d63a428574,5,1767702185839,2.60505,-7.5270004,-5.1780005,0.0367125,-0.183975,0.1676125,-0.1539187431335449,0.2880831956863403,-0.3154197311401372,15.4211517,73.9811917,0.46530887,0.4540622357311615,0.0,0.2515721734164969,0.01882098516193585
07041728-71ac-43c0-9f03-c7d63a428574,5,1767702185850,2.29905,-7.9290004,-5.235,0.0495,-0.17379999,0.130075,-0.3673353195190429,-0.0060230493545532,-0.041430053710938,15.4211517,73.9811917,0.46530887,0.3697133530725878,0.0,0.22265711789430873,-0.009612590698263774
07041728-71ac-43c0-9f03-c7d63a428574,5,1767702185861,2.29905,-7.9290004,-5.235,0.0495,-0.17379999,0.130075,-0.3673353195190429,-0.0060230493545532,-0.041430053710938,15.4211517,73.9811917,0.46530887,0.3697133530725878,0.0,0.22265711789430873,-0.007189752503446205
07041728-71ac-43c0-9f03-c7d63a428574,5,1767702185871,2.29905,-7.9290004,-5.235,0.0495,-0.17379999,0.130075,-0.3673353195190429,-0.0060230493545532,-0.041430053710938,15.4211517,73.9811917,0.46530887,0.3697133530725878,0.0,0.22265711789430873,-0.0032286125700638465
07041728-71ac-43c0-9f03-c7d63a428574,5,1767702185882,2.5860002,-7.5840006,-5.04405,0.061049998,-0.1417625,0.147675,-0.2422511577606201,0.3972640037536621,-0.3532348251342778,15.4211517,73.9811917,0.46530887,0.5841910250957253,0.0,0.2136155759467226,-0.007299648026455118
07041728-71ac-43c0-9f03-c7d63a428574,5,1767702185893,2.5860002,-7.5840006,-5.04405,0.061049998,-0.1417625,0.147675,-0.2422511577606201,0.3972640037536621,-0.3532348251342778,15.4211517,73.9811917,0.46530887,0.5841910250957253,0.0,0.2136155759467226,-0.001911808472576235
07041728-71ac-43c0-9f03-c7d63a428574,5,1767702185904,2.31795,-7.7380505,-5.00505,0.0771375,-0.0873125,0.15675,-0.3721396923065185,0.1778196096420288,-0.3162780380249028,15.4211517,73.9811917,0.46530887,0.5197495180374059,0.0,0.1953054762737082,-0.015008572925914173
07041728-71ac-43c0-9f03-c7d63a428574,5,1767702185914,2.31795,-7.7380505,-5.00505,0.0771375,-0.0873125,0.15675,-0.3721396923065185,0.1778196096420288,-0.3162780380249028,15.4211517,73.9811917,0.46530887,0.5197495180374059,0.0,0.1953054762737082,-0.010505231147426568
07041728-71ac-43c0-9f03-c7d63a428574,5,1767702185925,2.1649501,-7.66095,-4.9099503,0.0889625,-0.0705375,0.1654125,-0.3896989822387695,0.0974122285842895,-0.4653001403808599,15.4211517,73.9811917,0.46530887,0.6147020901820154,0.0,0.20062691860453322,-0.0018262675353602905
07041728-71ac-43c0-9f03-c7d63a428574,5,1767702185936,2.1649501,-7.66095,-4.9099503,0.0889625,-0.0705375,0.1654125,-0.3896989822387695,0.0974122285842895,-0.4653001403808599,15.4211517,73.9811917,0.46530887,0.6147020901820154,0.0,0.20062691860453322,7.660083537115164e-05
07041728-71ac-43c0-9f03-c7d63a428574,5,1767702185946,2.26005,-8.158951,-4.8910503,0.0991375,-0.073425,0.16995,-0.6343417167663574,0.167656660079956,-0.0545821762084965,15.4211517,73.9811917,0.46530887,0.6583899932858267,0.0,0.21000589761063856,0.009732847828413141
07041728-71ac-43c0-9f03-c7d63a428574,5,1767702185957,2.26005,-8.158951,-4.8910503,0.0991375,-0.073425,0.16995,-0.6343417167663574,0.167656660079956,-0.0545821762084965,15.4211517,73.9811917,0.46530887,0.6583899932858267,0.0,0.21000589761063856,0.008347764425434364
07041728-71ac-43c0-9f03-c7d63a428574,5,1767702185967,2.26005,-8.158951,-4.8910503,0.0991375,-0.073425,0.16995,-0.6343417167663574,0.167656660079956,-0.0545821762084965,15.4211517,73.9811917,0.46530887,0.6583899932858267,0.0,0.21000589761063856,0.005382940644504478
07041728-71ac-43c0-9f03-c7d63a428574,5,1767702185978,2.7199502,-8.10105,-4.79505,0.1359875,-0.0746625,0.1507,-0.5423016548156738,0.6543623208999634,-0.0480647659301762,15.4211517,73.9811917,0.46530887,0.8512293190165194,0.0,0.21628124990969513,0.007293776084184888
07041728-71ac-43c0-9f03-c7d63a428574,5,1767702185989,2.7199502,-8.10105,-4.79505,0.1359875,-0.0746625,0.1507,-0.5423016548156738,0.6543623208999634,-0.0480647659301762,15.4211517,73.9811917,0.46530887,0.8512293190165194,0.0,0.21628124990969513,0.0017818280507907003
07041728-71ac-43c0-9f03-c7d63a428574,5,1767702185999,2.66295,-8.082001,-4.8520503,0.1687125,-0.044275,0.1265,-0.4309349060058594,0.5908812284469604,-0.0418077087402348,15.4211517,73.9811917,0.46530887,0.7325253605544154,0.0,0.21546794026316304,-0.005391968738757771
07041728-71ac-43c0-9f03-c7d63a428574,5,1767702186010,2.66295,-8.082001,-4.8520503,0.1687125,-0.044275,0.1265,-0.4309349060058594,0.5908812284469604,-0.0418077087402348,15.4211517,73.9811917,0.46530887,0.7325253605544154,0.0,0.21546794026316304,-0.012279570498442244
07041728-71ac-43c0-9f03-c7d63a428574,5,1767702186021,2.56695,-7.9290004,-4.6800003,0.20735,0.01705,0.120175,-0.4333391189575195,0.5625330209732056,-0.2781320190429692,15.4211517,73.9811917,0.46530887,0.7626162938995198,0.0,0.2402639290967331,0.005423951779883917
07041728-71ac-43c0-9f03-c7d63a428574,5,1767702186032,2.56695,-7.9290004,-4.6800003,0.20735,0.01705,0.120175,-0.4333391189575195,0.5625330209732056,-0.2781320190429692,15.4211517,73.9811917,0.46530887,0.7626162938995198,0.0,0.2402639290967331,-0.001569292475495917
07041728-71ac-43c0-9f03-c7d63a428574,5,1767702186042,2.739,-7.9870505,-4.6990504,0.2234375,0.080575,0.074525,-0.3584456443786621,0.7133115530014038,-0.1798959350585942,15.4211517,73.9811917,0.46530887,0.8183270734064191,0.0,0.24893899384437546,0.00048157476522510113
07041728-71ac-43c0-9f03-c7d63a428574,5,1767702186053,2.739,-7.9870505,-4.6990504,0.2234375,0.080575,0.074525,-0.3584456443786621,0.7133115530014038,-0.1798959350585942,15.4211517,73.9811917,0.46530887,0.8183270734064191,0.0,0.24893899384437546,-0.005550913188439147
07041728-71ac-43c0-9f03-c7d63a428574,5,1767702186063,2.739,-7.9870505,-4.6990504,0.2234375,0.080575,0.074525,-0.3584456443786621,0.7133115530014038,-0.1798959350585942,15.4211517,73.9811917,0.46530887,0.8183270734064191,0.0,0.24893899384437546,-0.010825302304343538
07041728-71ac-43c0-9f03-c7d63a428574,5,1767702186074,2.7769501,-8.04405,-4.94805,0.231825,0.139975,0.0199375,-0.11674165725708,0.6490352153778076,0.0117391967773432,15.4211517,73.9811917,0.46530887,0.6595552547593142,0.0,0.2715388280821916,0.007363873746760825
07041728-71ac-43c0-9f03-c7d63a428574,5,1767702186085,2.7769501,-8.04405,-4.94805,0.231825,0.139975,0.0199375,-0.11674165725708,0.6490352153778076,0.0117391967773432,15.4211517,73.9811917,0.46530887,0.6595552547593142,0.0,0.2715388280821916,0.0038629207234056506
07041728-71ac-43c0-9f03-c7d63a428574,5,1767702186095,2.9310002,-7.9669504,-5.04405,0.2212375,0.17985,0.0218625,0.0841608047485351,0.7240419387817383,0.037549438476562,15.4211517,73.9811917,0.46530887,0.7298833677380548,0.0,0.28595458173021115,0.015681209593926267
07041728-71ac-43c0-9f03-c7d63a428574,5,1767702186106,2.9310002,-7.9669504,-5.04405,0.2212375,0.17985,0.0218625,0.0841608047485351,0.7240419387817383,0.037549438476562,15.4211517,73.9811917,0.46530887,0.7298833677380548,0.0,0.28595458173021115,0.013942834711768463
07041728-71ac-43c0-9f03-c7d63a428574,5,1767702186117,3.00705,-7.833,-4.8910503,0.202675,0.1852125,-0.0012375,0.0974164009094238,0.7866928577423096,-0.1305232620239262,15.4211517,73.9811917,0.46530887,0.8033753353932854,0.0,0.2745584768086755,0.001604482090896579
07041728-71ac-43c0-9f03-c7d63a428574,5,1767702186128,3.00705,-7.833,-4.8910503,0.202675,0.1852125,-0.0012375,0.0974164009094238,0.7866928577423096,-0.1305232620239262,15.4211517,73.9811917,0.46530887,0.8033753353932854,0.0,0.2745584768086755,0.001399653930924629
07041728-71ac-43c0-9f03-c7d63a428574,5,1767702186138,3.00705,-7.66095,-4.79505,0.184525,0.179575,-0.023375,0.1615028381347656,0.7766234874725342,-0.3181176757812505,15.4211517,73.9811917,0.46530887,0.8546496730614542,0.0,0.2585402229344595,-0.01411828804688003
07041728-71ac-43c0-9f03-c7d63a428574,5,1767702186149,3.00705,-7.66095,-4.79505,0.184525,0.179575,-0.023375,0.1615028381347656,0.7766234874725342,-0.3181176757812505,15.4211517,73.9811917,0.46530887,0.8546496730614542,0.0,0.2585402229344595,-0.012901908442486001
07041728-71ac-43c0-9f03-c7d63a428574,5,1767702186160,3.00705,-7.66095,-4.79505,0.184525,0.179575,-0.023375,0.1615028381347656,0.7766234874725342,-0.3181176757812505,15.4211517,73.9811917,0.46530887,0.8546496730614542,0.0,0.2585402229344595,-0.010908583181489379
07041728-71ac-43c0-9f03-c7d63a428574,5,1767702186170,2.9310002,-7.623,-4.62195,0.15235,0.1874125,-0.063525,0.0711455345153808,0.7067214250564575,-0.4527125930786138,15.4211517,73.9811917,0.46530887,0.8422977808633191,0.0,0.24973864995480777,-0.016835666725505898
07041728-71ac-43c0-9f03-c7d63a428574,5,1767702186181,2.9310002,-7.623,-4.62195,0.15235,0.1874125,-0.063525,0.0711455345153808,0.7067214250564575,-0.4527125930786138,15.4211517,73.9811917,0.46530887,0.8422977808633191,0.0,0.24973864995480777,-0.01295332271110347
07041728-71ac-43c0-9f03-c7d63a428574,5,1767702186191,2.5090501,-7.4689503,-4.87095,0.1282875,0.2143625,-0.0902,0.3179271221160888,0.2058676481246948,-0.5545564270019536,15.4211517,73.9811917,0.46530887,0.6715593601838818,0.0,0.26560309497914364,0.00791748870021812
07041728-71ac-43c0-9f03-c7d63a428574,5,1767702186202,2.5090501,-7.4689503,-4.87095,0.1282875,0.2143625,-0.0902,0.3179271221160888,0.2058676481246948,-0.5545564270019536,15.4211517,73.9811917,0.46530887,0.6715593601838818,0.0,0.26560309497914364,0.01411352513672482
07041728-71ac-43c0-9f03-c7d63a428574,5,1767702186213,2.184,-7.431,-5.2930503,0.0721875,0.2402125,-0.064075,0.6426806449890137,-0.2649306058883667,-0.4546390151977544,15.4211517,73.9811917,0.46530887,0.8306161998900911,0.0,0.2588796746318644,0.014751258676589078
07041728-71ac-43c0-9f03-c7d63a428574,5,1767702186223,2.184,-7.431,-5.2930503,0.0721875,0.2402125,-0.064075,0.6426806449890137,-0.2649306058883667,-0.4546390151977544,15.4211517,73.9811917,0.46530887,0.8306161998900911,0.0,0.2588796746318644,0.023131523383654443
07041728-71ac-43c0-9f03-c7d63a428574,5,1767702186234,2.05005,-7.3740005,-5.3689504,0.0044,0.2182125,-0.0383625,0.7122762203216553,-0.4475462436676025,-0.4988999938964849,15.4211517,73.9811917,0.46530887,0.9780267164891748,0.0,0.22160265468288057,-0.005029212575567411
07041728-71ac-43c0-9f03-c7d63a428574,5,1767702186245,2.05005,-7.3740005,-5.3689504,0.0044,0.2182125,-0.0383625,0.7122762203216553,-0.4475462436676025,-0.4988999938964849,15.4211517,73.9811917,0.46530887,0.9780267164891748,0.0,0.22160265468288057,0.0044076388193840564
07041728-71ac-43c0-9f03-c7d63a428574,5,1767702186255,2.05005,-7.3740005,-5.3689504,0.0044,0.2182125,-0.0383625,0.7122762203216553,-0.4475462436676025,-0.4988999938964849,15.4211517,73.9811917,0.46530887,0.9780267164891748,0.0,0.22160265468288057,0.013643584456353474
07041728-71ac-43c0-9f03-c7d63a428574,5,1767702186266,2.1070502,-7.3159504,-5.1010504,-0.0468875,0.18755,-0.032725,0.5280156135559082,-0.3402509689331054,-0.6672998046875005,15.4211517,73.9811917,0.46530887,0.9164388901365522,0.0,0.19607234833410342,-0.0034337160807430124
07041728-71ac-43c0-9f03-c7d63a428574,5,1767702186277,2.1070502,-7.3159504,-5.1010504,-0.0468875,0.18755,-0.032725,0.5280156135559082,-0.3402509689331054,-0.6672998046875005,15.4211517,73.9811917,0.46530887,0.9164388901365522,0.0,0.19607234833410342,0.003652507225827246
07041728-71ac-43c0-9f03-c7d63a428574,5,1767702186288,2.2410002,-7.3159504,-5.025,-0.1238875,0.10395,0.0078375,0.4761199951171875,-0.216360330581665,-0.6709428405761724,15.4211517,73.9811917,0.46530887,0.850685804348598,0.0,0.16191090624939383,-0.025311309690445795
07041728-71ac-43c0-9f03-c7d63a428574,5,1767702186299,2.2410002,-7.3159504,-5.025,-0.1238875,0.10395,0.0078375,0.4761199951171875,-0.216360330581665,-0.6709428405761724,15.4211517,73.9811917,0.46530887,0.850685804348598,0.0,0.16191090624939383,-0.022402400852483458
07041728-71ac-43c0-9f03-c7d63a428574,5,1767702186309,2.6430001,-7.3740005,-5.2540503,-0.1667875,0.0418,0.0523875,0.6713259220123291,0.080436110496521,-0.4020648574829106,15.4211517,73.9811917,0.46530887,0.7866413484303159,0.0,0.17974915942084405,-0.004175609098869591
07041728-71ac-43c0-9f03-c7d63a428574,5,1767702186320,2.6430001,-7.3740005,-5.2540503,-0.1667875,0.0418,0.0523875,0.6713259220123291,0.080436110496521,-0.4020648574829106,15.4211517,73.9811917,0.46530887,0.7866413484303159,0.0,0.17974915942084405,-0.006343494365209035
07041728-71ac-43c0-9f03-c7d63a428574,5,1767702186330,2.87295,-7.6039505,-5.484,-0.1989625,-0.00495,0.047575,0.7065384387969971,0.2039380073547363,-0.0320954895019536,15.4211517,73.9811917,0.46530887,0.7360824660239424,0.0,0.20463127701123796,0.013977753114728883
07041728-71ac-43c0-9f03-c7d63a428574,5,1767702186341,2.87295,-7.6039505,-5.484,-0.1989625,-0.00495,0.047575,0.7065384387969971,0.2039380073547363,-0.0320954895019536,15.4211517,73.9811917,0.46530887,0.7360824660239424,0.0,0.20463127701123796,0.007367398715782939
07041728-71ac-43c0-9f03-c7d63a428574,5,1767702186352,2.87295,-7.6039505,-5.484,-0.1989625,-0.00495,0.047575,0.7065384387969971,0.2039380073547363,-0.0320954895019536,15.4211517,73.9811917,0.46530887,0.7360824660239424,0.0,0.20463127701123796,-0.0008084908548821481
07041728-71ac-43c0-9f03-c7d63a428574,5,1767702186363,2.91195,-7.7380505,-5.6950502,-0.2143625,-0.013062499,0.0369875,0.737825870513916,0.1722934246063232,0.2008146667480463,15.4211517,73.9811917,0.46530887,0.78383580534658,0.0,0.217921970995641,0.0033109216215532673
07041728-71ac-43c0-9f03-c7d63a428574,5,1767702186373,2.91195,-7.7380505,-5.6950502,-0.2143625,-0.013062499,0.0369875,0.737825870513916,0.1722934246063232,0.2008146667480463,15.4211517,73.9811917,0.46530887,0.78383580534658,0.0,0.217921970995641,-0.006261349456912536
07041728-71ac-43c0-9f03-c7d63a428574,5,1767702186384,2.91195,-7.7380505,-5.6950502,-0.2143625,-0.013062499,0.0369875,0.737825870513916,0.1722934246063232,0.2008146667480463,15.4211517,73.9811917,0.46530887,0.78383580534658,0.0,0.217921970995641,-0.015678036922349824
07041728-71ac-43c0-9f03-c7d63a428574,5,1767702186395,3.0259502,-7.6039505,-5.5609503,-0.2344375,-0.0209,0.0356125,0.6532933712005615,0.343153715133667,0.0569176101684565,15.4211517,73.9811917,0.46530887,0.7401258780855597,0.0,0.23804621728248487,-0.004350937193240537
07041728-71ac-43c0-9f03-c7d63a428574,5,1767702186406,3.1990502,-7.25895,-5.4079504,-0.266475,-0.0210375,0.041525,0.6846508979797363,0.5876659154891968,-0.2518544769287114,15.4211517,73.9811917,0.46530887,0.9367650494554384,0.0,0.27051030970417744,0.020266270349942803
07041728-71ac-43c0-9f03-c7d63a428574,5,1767702186416,3.1990502,-7.25895,-5.4079504,-0.266475,-0.0210375,0.041525,0.6846508979797363,0.5876659154891968,-0.2518544769287114,15.4211517,73.9811917,0.46530887,0.9367650494554384,0.0,0.27051030970417744,0.013546364603367663
07041728-71ac-43c0-9f03-c7d63a428574,5,1767702186427,3.1219501,-7.0669503,-5.1589503,-0.2820125,-0.02585,0.0356125,0.5203506946563721,0.621259331703186,-0.5554643249511724,15.4211517,73.9811917,0.46530887,0.9824808491523486,0.0,0.2854251614915896,0.022893807874609384
07041728-71ac-43c0-9f03-c7d63a428574,5,1767702186438,3.1219501,-7.0669503,-5.1589503,-0.2820125,-0.02585,0.0356125,0.5203506946563721,0.621259331703186,-0.5554643249511724,15.4211517,73.9811917,0.46530887,0.9824808491523486,0.0,0.2854251614915896,0.01838038616121893
07041728-71ac-43c0-9f03-c7d63a428574,5,1767702186448,2.835,-7.1059504,-4.94805,-0.2668875,0.0242,0.014712499,0.2160999774932861,0.4269241094589233,-0.7113185501098638,15.4211517,73.9811917,0.46530887,0.8572849440182023,0.0,0.26838598190493296,-0.0022921702048528925
07041728-71ac-43c0-9f03-c7d63a428574,5,1767702186459,2.835,-7.1059504,-4.94805,-0.2668875,0.0242,0.014712499,0.2160999774932861,0.4269241094589233,-0.7113185501098638,15.4211517,73.9811917,0.46530887,0.8572849440182023,0.0,0.26838598190493296,-0.005231805820874867
07041728-71ac-43c0-9f03-c7d63a428574,5,1767702186470,2.835,-7.1059504,-4.94805,-0.2668875,0.0242,0.014712499,0.2160999774932861,0.4269241094589233,-0.7113185501098638,15.4211517,73.9811917,0.46530887,0.8572849440182023,0.0,0.26838598190493296,-0.0076092230622903665
07041728-71ac-43c0-9f03-c7d63a428574,5,1767702186481,2.70105,-7.3350005,-5.1199503,-0.2385625,0.08635,-0.03355,0.1328227519989013,0.2301186323165893,-0.4697003936767583,15.4211517,73.9811917,0.46530887,0.5396433342569156,0.0,0.25591793881291325,-0.021910377739285187
07041728-71ac-43c0-9f03-c7d63a428574,5,1767702186491,2.70105,-7.3350005,-5.1199503,-0.2385625,0.08635,-0.03355,0.1328227519989013,0.2301186323165893,-0.4697003936767583,15.4211517,73.9811917,0.46530887,0.5396433342569156,0.0,0.25591793881291325,-0.023065236522318854
07041728-71ac-43c0-9f03-c7d63a428574,5,1767702186502,2.835,-7.5079503,-5.3500504,-0.207625,0.137775,-0.0776875,0.1777675151824951,0.2530704736709595,-0.1697755432128911,15.4211517,73.9811917,0.46530887,0.3528026206980819,0.0,0.2610085035132955,-0.018157605367151015
07041728-71ac-43c0-9f03-c7d63a428574,5,1767702186513,2.835,-7.5079503,-5.3500504,-0.207625,0.137775,-0.0776875,0.1777675151824951,0.2530704736709595,-0.1697755432128911,15.4211517,73.9811917,0.46530887,0.3528026206980819,0.0,0.2610085035132955,-0.016942987789355997
07041728-71ac-43c0-9f03-c7d63a428574,5,1767702186524,3.00705,-7.5649505,-5.5420504,-0.1612875,0.18425,-0.1123375,0.2651772499084472,0.3083246946334839,0.0297026062011713,15.4211517,73.9811917,0.46530887,0.4077564665397473,0.0,0.26940941717486416,-0.005435019455300551
07041728-71ac-43c0-9f03-c7d63a428574,5,1767702186534,3.00705,-7.5649505,-5.5420504,-0.1612875,0.18425,-0.1123375,0.2651772499084472,0.3083246946334839,0.0297026062011713,15.4211517,73.9811917,0.46530887,0.4077564665397473,0.0,0.26940941717486416,3.811641351593193e-05
07041728-71ac-43c0-9f03-c7d63a428574,5,1767702186545,2.9880002,-7.3350005,-5.46495,-0.133925,0.1920875,-0.1313125,0.2919082641601562,0.2903909683227539,-0.1961293792724614,15.4211517,73.9811917,0.46530887,0.4560746458445407,0.0,0.26847064259896275,0.007285463019493153
07041728-71ac-43c0-9f03-c7d63a428574,5,1767702186556,2.9880002,-7.3350005,-5.46495,-0.133925,0.1920875,-0.1313125,0.2919082641601562,0.2903909683227539,-0.1961293792724614,15.4211517,73.9811917,0.46530887,0.4560746458445407,0.0,0.26847064259896275,0.018300996779979446
07041728-71ac-43c0-9f03-c7d63a428574,5,1767702186566,2.9880002,-7.3350005,-5.46495,-0.133925,0.1920875,-0.1313125,0.2919082641601562,0.2903909683227539,-0.1961293792724614,15.4211517,73.9811917,0.46530887,0.4560746458445407,0.0,0.26847064259896275,0.03194806739893362
07041728-71ac-43c0-9f03-c7d63a428574,5,1767702186577,2.5480502,-7.4119506,-5.44605,-0.1230625,0.15565,-0.1241625,0.1009759902954101,-0.1662591695785522,-0.2679238891601567,15.4211517,73.9811917,0.46530887,0.3310913355371785,0.0,0.2340675710398602,0.013264093795954064
07041728-71ac-43c0-9f03-c7d63a428574,5,1767702186588,2.5480502,-7.4119506,-5.44605,-0.1230625,0.15565,-0.1241625,0.1009759902954101,-0.1662591695785522,-0.2679238891601567,15.4211517,73.9811917,0.46530887,0.3310913355371785,0.0,0.2340675710398602,0.030135372664528128
07041728-71ac-43c0-9f03-c7d63a428574,5,1767702186599,2.184,-7.4500504,-5.46495,-0.1194875,0.117837496,-0.0950125,-0.0160474777221679,-0.5450441837310791,-0.3315263366699224,15.4211517,73.9811917,0.46530887,0.6381538965375833,0.0,0.19284790192286255,0.005714259386061181
07041728-71ac-43c0-9f03-c7d63a428574,5,1767702186609,2.184,-7.4500504,-5.46495,-0.1194875,0.117837496,-0.0950125,-0.0160474777221679,-0.5450441837310791,-0.3315263366699224,15.4211517,73.9811917,0.46530887,0.6381538965375833,0.0,0.19284790192286255,0.021016630127922778
07041728-71ac-43c0-9f03-c7d63a428574,5,1767702186620,1.9920001,-7.4689503,-5.5420504,-0.0979,0.1035375,-0.0628375,-0.0393424034118652,-0.7645745277404785,-0.3294129943847661,15.4211517,73.9811917,0.46530887,0.8334476312554591,0.0,0.15573366788366605,-0.0037666900746260823
07041728-71ac-43c0-9f03-c7d63a428574,5,1767702186630,1.9920001,-7.4689503,-5.5420504,-0.0979,0.1035375,-0.0628375,-0.0393424034118652,-0.7645745277404785,-0.3294129943847661,15.4211517,73.9811917,0.46530887,0.8334476312554591,0.0,0.15573366788366605,0.004234719714449775
07041728-71ac-43c0-9f03-c7d63a428574,5,1767702186641,1.8769501,-7.431,-5.5219502,-0.07755,0.0213125,0.0627,-0.0774860382080078,-0.8645713329315186,-0.4035573577880864,15.4211517,73.9811917,0.46530887,0.9572597436793512,0.0,0.10197801310208982,-0.04692107916007867
07041728-71ac-43c0-9f03-c7d63a428574,5,1767702186652,1.8769501,-7.431,-5.5219502,-0.07755,0.0213125,0.0627,-0.0774860382080078,-0.8645713329315186,-0.4035573577880864,15.4211517,73.9811917,0.46530887,0.9572597436793512,0.0,0.10197801310208982,-0.05036411138101245
07041728-71ac-43c0-9f03-c7d63a428574,5,1767702186662,1.8769501,-7.431,-5.5219502,-0.07755,0.0213125,0.0627,-0.0774860382080078,-0.8645713329315186,-0.4035573577880864,15.4211517,73.9811917,0.46530887,0.9572597436793512,0.0,0.10197801310208982,-0.05996116767868261
07041728-71ac-43c0-9f03-c7d63a428574,5,1767702186673,1.8970501,-7.3549504,-5.44605,-0.0642125,-0.0708125,0.1546875,-0.0935420989990234,-0.7869442701339722,-0.4973445510864263,15.4211517,73.9811917,0.46530887,0.9356190523269564,0.0,0.1818402539834071,0.004608465398468475
07041728-71ac-43c0-9f03-c7d63a428574,5,1767702186684,1.8970501,-7.3549504,-5.44605,-0.0642125,-0.0708125,0.1546875,-0.0935420989990234,-0.7869442701339722,-0.4973445510864263,15.4211517,73.9811917,0.46530887,0.9356190523269564,0.0,0.1818402539834071,-0.015378004348859177
07041728-71ac-43c0-9f03-c7d63a428574,5,1767702186694,1.9729501,-7.25895,-5.44605,-0.036849998,-0.1727,0.2102375,-0.0208559036254882,-0.6572201251983643,-0.5465236282348638,15.4211517,73.9811917,0.46530887,0.8550212499703086,0.0,0.2745596815973715,0.05411815883349888
07041728-71ac-43c0-9f03-c7d63a428574,5,1767702186705,1.9729501,-7.25895,-5.44605,-0.036849998,-0.1727,0.2102375,-0.0208559036254882,-0.6572201251983643,-0.5465236282348638,15.4211517,73.9811917,0.46530887,0.8550212499703086,0.0,0.2745596815973715,0.029434491287229834
07041728-71ac-43c0-9f03-c7d63a428574,5,1767702186716,2.088,-7.2780004,-5.3880005,-0.040975,-0.2145,0.209825,-0.0465812683105468,-0.4642797708511352,-0.5287366485595708,15.4211517,73.9811917,0.46530887,0.7051864744229067,0.0,0.3028460520627601,0.03350728247704233
07041728-71ac-43c0-9f03-c7d63a428574,5,1767702186726,2.088,-7.2780004,-5.3880005,-0.040975,-0.2145,0.209825,-0.0465812683105468,-0.4642797708511352,-0.5287366485595708,15.4211517,73.9811917,0.46530887,0.7051864744229067,0.0,0.3028460520627601,0.011674836619561205
07041728-71ac-43c0-9f03-c7d63a428574,5,1767702186737,2.31795,-7.431,-5.4079504,-0.0518375,-0.24145,0.1918125,-0.0736126899719238,-0.1940846443176269,-0.3339486694335942,15.4211517,73.9811917,0.46530887,0.3932040069750947,0.0,0.3126935625536605,0.003799654901818999
07041728-71ac-43c0-9f03-c7d63a428574,5,1767702186748,2.31795,-7.431,-5.4079504,-0.0518375,-0.24145,0.1918125,-0.0736126899719238,-0.1940846443176269,-0.3339486694335942,15.4211517,73.9811917,0.46530887,0.3932040069750947,0.0,0.3126935625536605,-0.008405160003958433
07041728-71ac-43c0-9f03-c7d63a428574,5,1767702186759,2.31795,-7.431,-5.4079504,-0.0518375,-0.24145,0.1918125,-0.0736126899719238,-0.1940846443176269,-0.3339486694335942,15.4211517,73.9811917,0.46530887,0.3932040069750947,0.0,0.3126935625536605,-0.014108837981158874
07041728-71ac-43c0-9f03-c7d63a428574,5,1767702186769,2.49,-7.431,-5.4079504,-0.0479875,-0.2498375,0.1676125,-0.0376019477844238,0.0377150774002075,-0.2882886505126958,15.4211517,73.9811917,0.46530887,0.2931666412723614,0.0,0.304656407644333,-0.02085708640237552
07041728-71ac-43c0-9f03-c7d63a428574,5,1767702186780,2.49,-7.431,-5.4079504,-0.0479875,-0.2498375,0.1676125,-0.0376019477844238,0.0377150774002075,-0.2882886505126958,15.4211517,73.9811917,0.46530887,0.2931666412723614,0.0,0.304656407644333,-0.012605455144972598
07041728-71ac-43c0-9f03-c7d63a428574,5,1767702186791,2.5860002,-7.39305,-5.44605,-0.037125,-0.2344375,0.1651375,0.0317020416259765,0.1818001270294189,-0.272178230285645,15.4211517,73.9811917,0.46530887,0.3288423553506963,0.0,0.2891532481877041,-0.013439412787317532
07041728-71ac-43c0-9f03-c7d63a428574,5,1767702186801,2.5860002,-7.39305,-5.44605,-0.037125,-0.2344375,0.1651375,0.0317020416259765,0.1818001270294189,-0.272178230285645,15.4211517,73.9811917,0.46530887,0.3288423553506963,0.0,0.2891532481877041,0.006625941363447961
07041728-71ac-43c0-9f03-c7d63a428574,5,1767702186812,2.70105,-7.4119506,-5.427,-0.029975,-0.189475,0.17379999,0.0272903442382812,0.3511915206909179,-0.2412524795532231,15.4211517,73.9811917,0.46530887,0.426946139441993,0.0,0.2588546170613924,0.0003609173319272303
07041728-71ac-43c0-9f03-c7d63a428574,5,1767702186823,2.70105,-7.4119506,-5.427,-0.029975,-0.189475,0.17379999,0.0272903442382812,0.3511915206909179,-0.2412524795532231,15.4211517,73.9811917,0.46530887,0.426946139441993,0.0,0.2588546170613924,0.026626841571283283
07041728-71ac-43c0-9f03-c7d63a428574,6,1767702186833,2.7970502,-7.4119506,-5.44605,-0.0246125,-0.148225,0.14135,0.0612993240356445,0.4810627698898315,-0.2087073898315434,15.42115,73.981195,0.138975,0.5279562200330628,0.0,0.20629165829293727,0.0006425713536714765
07041728-71ac-43c0-9f03-c7d63a428574,6,1767702186844,2.7970502,-7.4119506,-5.44605,-0.0246125,-0.148225,0.14135,0.0612993240356445,0.4810627698898315,-0.2087073898315434,15.42115,73.981195,0.138975,0.5279562200330628,0.0,0.20629165829293727,0.025576771799340092
07041728-71ac-43c0-9f03-c7d63a428574,6,1767702186855,2.7970502,-7.4119506,-5.44605,-0.0246125,-0.148225,0.14135,0.0612993240356445,0.4810627698898315,-0.2087073898315434,15.42115,73.981195,0.138975,0.5279562200330628,0.0,0.20629165829293727,0.04703148003020225
07041728-71ac-43c0-9f03-c7d63a428574,6,1767702186865,2.8920002,-7.431,-5.427,-0.0176,-0.1128875,0.102025,0.0541057586669921,0.6056957244873047,-0.1836829757690434,15.42115,73.981195,0.138975,0.6352434016741163,0.0,0.15317456799759546,0.0103395747493663
07041728-71ac-43c0-9f03-c7d63a428574,6,1767702186876,2.8920002,-7.431,-5.427,-0.0176,-0.1128875,0.102025,0.0541057586669921,0.6056957244873047,-0.1836829757690434,15.42115,73.981195,0.138975,0.6352434016741163,0.0,0.15317456799759546,0.020620629321040827
07041728-71ac-43c0-9f03-c7d63a428574,6,1767702186886,2.9880002,-7.431,-5.3880005,-0.0031625,-0.039875,-0.0059125,0.0427994728088378,0.7214875221252441,-0.1841970062255864,15.42115,73.981195,0.138975,0.7458582818187433,0.0,0.04043482023578193,-0.08854094183474515
07041728-71ac-43c0-9f03-c7d63a428574,6,1767702186897,2.9880002,-7.431,-5.3880005,-0.0031625,-0.039875,-0.0059125,0.0427994728088378,0.7214875221252441,-0.1841970062255864,15.42115,73.981195,0.138975,0.7458582818187433,0.0,0.04043482023578193,-0.0915960976178126
07041728-71ac-43c0-9f03-c7d63a428574,6,1767702186908,2.96895,-7.4890504,-5.3880005,0.0070125,0.033,-0.1216875,-0.00030517578125,0.681306004524231,-0.142168579101563,15.42115,73.981195,0.138975,0.6959812280635062,0.0,0.12627756258536194,-0.014734202692720594
07041728-71ac-43c0-9f03-c7d63a428574,6,1767702186918,2.96895,-7.4890504,-5.3880005,0.0070125,0.033,-0.1216875,-0.00030517578125,0.681306004524231,-0.142168579101563,15.42115,73.981195,0.138975,0.6959812280635062,0.0,0.12627756258536194,-0.02835516338344072
07041728-71ac-43c0-9f03-c7d63a428574,6,1767702186929,2.8540502,-7.5460505,-5.3880005,0.013612499,0.0924,-0.1978625,-0.0632658004760742,0.521858811378479,-0.1227536773681645,15.42115,73.981195,0.138975,0.5398218649060492,0.0,0.21879814678208545,0.04764062005629412
07041728-71ac-43c0-9f03-c7d63a428574,6,1767702186940,2.8540502,-7.5460505,-5.3880005,0.013612499,0.0924,-0.1978625,-0.0632658004760742,0.521858811378479,-0.1227536773681645,15.42115,73.981195,0.138975,0.5398218649060492,0.0,0.21879814678208545,0.03021829224565521
07041728-71ac-43c0-9f03-c7d63a428574,6,1767702186950,2.8540502,-7.5460505,-5.3880005,0.013612499,0.0924,-0.1978625,-0.0632658004760742,0.521858811378479,-0.1227536773681645,15.42115,73.981195,0.138975,0.5398218649060492,0.0,0.21879814678208545,0.013963093147590167
07041728-71ac-43c0-9f03-c7d63a428574,6,1767702186961,2.6820002,-7.4890504,-5.484,0.0177375,0.1189375,-0.215875,0.0022640228271484,0.2714515924453735,-0.1518636322021489,15.42115,73.981195,0.138975,0.3110524965759326,0.0,0.24710880890308223,0.02909291891961068
07041728-71ac-43c0-9f03-c7d63a428574,6,1767702186972,2.6820002,-7.4890504,-5.484,0.0177375,0.1189375,-0.215875,0.0022640228271484,0.2714515924453735,-0.1518636322021489,15.42115,73.981195,0.138975,0.3110524965759326,0.0,0.24710880890308223,0.02054324672518789
07041728-71ac-43c0-9f03-c7d63a428574,6,1767702186982,2.433,-7.39305,-5.2930503,0.0243375,0.12925,-0.205975,-0.1376514434814453,0.0443383455276489,-0.3987212753295903,15.42115,73.981195,0.138975,0.4241373175955043,0.0,0.24438407687746352,0.014958591948319935
07041728-71ac-43c0-9f03-c7d63a428574,6,1767702186993,2.433,-7.39305,-5.2930503,0.0243375,0.12925,-0.205975,-0.1376514434814453,0.0443383455276489,-0.3987212753295903,15.42115,73.981195,0.138975,0.4241373175955043,0.0,0.24438407687746352,0.01826144516627173
07041728-71ac-43c0-9f03-c7d63a428574,6,1767702187004,2.2030501,-7.39305,-5.31195,0.021724999,0.142725,-0.1332375,-0.1708512306213379,-0.230678915977478,-0.4481044387817388,15.42115,73.981195,0.138975,0.5321658513445475,0.0,0.19645516692823328,-0.020334731854284128
07041728-71ac-43c0-9f03-c7d63a428574,6,1767702187014,2.2030501,-7.39305,-5.31195,0.021724999,0.142725,-0.1332375,-0.1708512306213379,-0.230678915977478,-0.4481044387817388,15.42115,73.981195,0.138975,0.5321658513445475,0.0,0.19645516692823328,-0.00566644378265077
07041728-71ac-43c0-9f03-c7d63a428574,6,1767702187025,2.184,-7.3159504,-5.4079504,0.02145,0.12595,-0.0939125,-0.0541462898254394,-0.3102961778640747,-0.4590802764892583,15.42115,73.981195,0.138975,0.5567497094389613,0.0,0.15856564147459562,-0.024708067104077774
07041728-71ac-43c0-9f03-c7d63a428574,6,1767702187036,2.184,-7.3159504,-5.4079504,0.02145,0.12595,-0.0939125,-0.0541462898254394,-0.3102961778640747,-0.4590802764892583,15.42115,73.981195,0.138975,0.5567497094389613,0.0,0.15856564147459562,-0.0031578470212562165
07041728-71ac-43c0-9f03-c7d63a428574,6,1767702187046,2.184,-7.3159504,-5.4079504,0.02145,0.12595,-0.0939125,-0.0541462898254394,-0.3102961778640747,-0.4590802764892583,15.42115,73.981195,0.138975,0.5567497094389613,0.0,0.15856564147459562,0.01945900974577106
07041728-71ac-43c0-9f03-c7d63a428574,6,1767702187057,2.2800002,-7.3549504,-5.3880005,0.017875,0.08745,-0.0479875,-0.0733981132507324,-0.2463643550872802,-0.4154172515869145,15.42115,73.981195,0.138975,0.4885224369487697,0.0,0.10134011190663843,-0.01570972882939353
07041728-71ac-43c0-9f03-c7d63a428574,6,1767702187067,2.2800002,-7.3549504,-5.3880005,0.017875,0.08745,-0.0479875,-0.0733981132507324,-0.2463643550872802,-0.4154172515869145,15.42115,73.981195,0.138975,0.4885224369487697,0.0,0.10134011190663843,0.004323969234691932
07041728-71ac-43c0-9f03-c7d63a428574,6,1767702187078,2.4139502,-7.3549504,-5.31195,0.012375,0.0543125,0.01155,-0.1001443862915039,-0.1136665344238281,-0.4229693984985356,15.42115,73.981195,0.138975,0.4492795245944759,0.0,0.056889285293893435,-0.02328806097796339
07041728-71ac-43c0-9f03-c7d63a428574,6,1767702187089,2.4139502,-7.3549504,-5.31195,0.012375,0.0543125,0.01155,-0.1001443862915039,-0.1136665344238281,-0.4229693984985356,15.42115,73.981195,0.138975,0.4492795245944759,0.0,0.056889285293893435,-0.010435287849170489
07041728-71ac-43c0-9f03-c7d63a428574,6,1767702187099,2.5090501,-7.431,-5.2930503,0.0125124995,0.0180125,0.0441375,-0.1349391937255859,-0.0302801132202148,-0.3489013290405278,15.42115,73.981195,0.138975,0.3753100167410762,0.0,0.049286222275981964,-0.009537206311229705
07041728-71ac-43c0-9f03-c7d63a428574,6,1767702187110,2.5090501,-7.431,-5.2930503,0.0125124995,0.0180125,0.0441375,-0.1349391937255859,-0.0302801132202148,-0.3489013290405278,15.42115,73.981195,0.138975,0.3753100167410762,0.0,0.049286222275981964,-0.005329256554240643
07041728-71ac-43c0-9f03-c7d63a428574,6,1767702187121,2.6430001,-7.4500504,-5.4079504,0.018975,-0.0191125,0.0594,-0.0257773399353027,0.0606751441955566,-0.2324071502685551,15.42115,73.981195,0.138975,0.2415761326647202,0.0,0.06522038240649927,0.010957682246631493
07041728-71ac-43c0-9f03-c7d63a428574,6,1767702187131,2.6430001,-7.4500504,-5.4079504,0.018975,-0.0191125,0.0594,-0.0257773399353027,0.0606751441955566,-0.2324071502685551,15.42115,73.981195,0.138975,0.2415761326647202,0.0,0.06522038240649927,0.008193316263683692
07041728-71ac-43c0-9f03-c7d63a428574,6,1767702187142,2.6430001,-7.4500504,-5.4079504,0.018975,-0.0191125,0.0594,-0.0257773399353027,0.0606751441955566,-0.2324071502685551,15.42115,73.981195,0.138975,0.2415761326647202,0.0,0.06522038240649927,0.0032463292540114235
07041728-71ac-43c0-9f03-c7d63a428574,6,1767702187153,2.6820002,-7.4689503,-5.46495,0.021724999,-0.0358875,0.064899996,0.0206885337829589,0.0867040157318115,-0.1748500442504887,15.42115,73.981195,0.138975,0.1962603876193786,0.0,0.07727805457308057,0.009191053493707026
07041728-71ac-43c0-9f03-c7d63a428574,6,1767702187163,2.6820002,-7.4689503,-5.46495,0.021724999,-0.0358875,0.064899996,0.0206885337829589,0.0867040157318115,-0.1748500442504887,15.42115,73.981195,0.138975,0.1962603876193786,0.0,0.07727805457308057,0.002898955689713194
07041728-71ac-43c0-9f03-c7d63a428574,6,1767702187174,2.6239502,-7.4119506,-5.46495,0.0163625,-0.054175,0.069025,0.0526103973388671,0.0506398677825927,-0.2349019622802739,15.42115,73.981195,0.138975,0.2459902071227942,0.0,0.08925868392627129,0.009267561032500274
07041728-71ac-43c0-9f03-c7d63a428574,6,1767702187184,2.6239502,-7.4119506,-5.46495,0.0163625,-0.054175,0.069025,0.0526103973388671,0.0506398677825927,-0.2349019622802739,15.42115,73.981195,0.138975,0.2459902071227942,0.0,0.08925868392627129,0.004993075132375096
07041728-71ac-43c0-9f03-c7d63a428574,6,1767702187195,2.5860002,-7.3549504,-5.44605,0.0119624995,-0.0622875,0.0661375,0.0717706680297851,0.0438079833984375,-0.3002629852294927,15.42115,73.981195,0.138975,0.3118140928466927,0.0,0.09163516222928565,0.0048436754843656
07041728-71ac-43c0-9f03-c7d63a428574,6,1767702187206,2.5860002,-7.3549504,-5.44605,0.0119624995,-0.0622875,0.0661375,0.0717706680297851,0.0438079833984375,-0.3002629852294927,15.42115,73.981195,0.138975,0.3118140928466927,0.0,0.09163516222928565,0.004218218105814502
07041728-71ac-43c0-9f03-c7d63a428574,6,1767702187217,2.5480502,-7.3350005,-5.44605,0.0050875,-0.0616,0.054725,0.0803041458129882,0.0285333395004272,-0.3259587860107427,15.42115,73.981195,0.138975,0.3369154752684973,0.0,0.08255463815710175,-0.003677360124790573
07041728-71ac-43c0-9f03-c7d63a428574,6,1767702187228,2.5480502,-7.3350005,-5.44605,0.0050875,-0.0616,0.054725,0.0803041458129882,0.0285333395004272,-0.3259587860107427,15.42115,73.981195,0.138975,0.3369154752684973,0.0,0.08255463815710175,-0.0009709372447598844
07041728-71ac-43c0-9f03-c7d63a428574,6,1767702187239,2.5480502,-7.3350005,-5.44605,0.0050875,-0.0616,0.054725,0.0803041458129882,0.0285333395004272,-0.3259587860107427,15.42115,73.981195,0.138975,0.3369154752684973,0.0,0.08255463815710175,0.0028301791138685933
07041728-71ac-43c0-9f03-c7d63a428574,6,1767702187250,2.529,-7.3549504,-5.427,-0.0103124995,-0.0556875,0.025024999,0.0517892837524414,0.0320849418640136,-0.326342163085938,15.42115,73.981195,0.138975,0.3319800909898318,0.0,0.06191684647280982,-0.013406190241202114
07041728-71ac-43c0-9f03-c7d63a428574,6,1767702187261,2.529,-7.3549504,-5.427,-0.0103124995,-0.0556875,0.025024999,0.0517892837524414,0.0320849418640136,-0.326342163085938,15.42115,73.981195,0.138975,0.3319800909898318,0.0,0.06191684647280982,-0.008896345926393427
07041728-71ac-43c0-9f03-c7d63a428574,6,1767702187272,2.529,-7.3740005,-5.44605,-0.0160875,-0.0551375,0.007425,0.0512876510620117,0.0362321138381958,-0.3006740188598638,15.42115,73.981195,0.138975,0.3071612847381394,0.0,0.057914438506299966,-0.008708510129991923
07041728-71ac-43c0-9f03-c7d63a428574,6,1767702187282,2.529,-7.3740005,-5.44605,-0.0160875,-0.0551375,0.007425,0.0512876510620117,0.0362321138381958,-0.3006740188598638,15.42115,73.981195,0.138975,0.3071612847381394,0.0,0.057914438506299966,-0.005156225968951596
07041728-71ac-43c0-9f03-c7d63a428574,6,1767702187293,2.5480502,-7.39305,-5.484,-0.01045,-0.029424999,-0.047849998,0.0659499168395996,0.0490558147430419,-0.2592263793945317,15.42115,73.981195,0.138975,0.2719451787865552,0.0,0.0571371628167693,-0.003201839091489529
07041728-71ac-43c0-9f03-c7d63a428574,6,1767702187304,2.5480502,-7.39305,-5.484,-0.01045,-0.029424999,-0.047849998,0.0659499168395996,0.0490558147430419,-0.2592263793945317,15.42115,73.981195,0.138975,0.2719451787865552,0.0,0.0571371628167693,-0.0013327157423708258
07041728-71ac-43c0-9f03-c7d63a428574,6,1767702187314,2.56695,-7.431,-5.46495,-0.0119624995,-0.0056375,-0.0647625,0.0238041877746582,0.0643495321273803,-0.2355561828613286,15.42115,73.981195,0.138975,0.2453450976172616,0.0,0.06609889716770999,0.008720197036883325
07041728-71ac-43c0-9f03-c7d63a428574,6,1767702187325,2.56695,-7.431,-5.46495,-0.0119624995,-0.0056375,-0.0647625,0.0238041877746582,0.0643495321273803,-0.2355561828613286,15.42115,73.981195,0.138975,0.2453450976172616,0.0,0.06609889716770999,0.009215138945576434
07041728-71ac-43c0-9f03-c7d63a428574,6,1767702187336,2.5090501,-7.431,-5.484,-0.0221375,0.0242,-0.0479875,0.0188817977905273,-0.0063966512680053,-0.2397866821289067,15.42115,73.981195,0.138975,0.2406139903697127,0.0,0.05812494354835968,0.0013798293316584407
07041728-71ac-43c0-9f03-c7d63a428574,6,1767702187347,2.5090501,-7.431,-5.484,-0.0221375,0.0242,-0.0479875,0.0188817977905273,-0.0063966512680053,-0.2397866821289067,15.42115,73.981195,0.138975,0.2406139903697127,0.0,0.05812494354835968,0.0014182306986221386
07041728-71ac-43c0-9f03-c7d63a428574,6,1767702187357,2.5090501,-7.431,-5.484,-0.0221375,0.0242,-0.0479875,0.0188817977905273,-0.0063966512680053,-0.2397866821289067,15.42115,73.981195,0.138975,0.2406139903697127,0.0,0.05812494354835968,0.0015891208010917913
07041728-71ac-43c0-9f03-c7d63a428574,6,1767702187368,2.4139502,-7.431,-5.46495,-0.0411125,0.0380875,-0.0171875,-0.0207815170288085,-0.0994151830673217,-0.2757287597656255,15.42115,73.981195,0.138975,0.2938394102842874,0.0,0.05862000911591537,0.002565039617729948
07041728-71ac-43c0-9f03-c7d63a428574,6,1767702187379,2.4139502,-7.431,-5.46495,-0.0411125,0.0380875,-0.0171875,-0.0207815170288085,-0.0994151830673217,-0.2757287597656255,15.42115,73.981195,0.138975,0.2938394102842874,0.0,0.05862000911591537,0.0034569770047237595
07041728-71ac-43c0-9f03-c7d63a428574,6,1767702187390,2.4139502,-7.431,-5.46495,-0.0411125,0.0380875,-0.0171875,-0.0207815170288085,-0.0994151830673217,-0.2757287597656255,15.42115,73.981195,0.138975,0.2938394102842874,0.0,0.05862000911591537,0.004776140376570407
07041728-71ac-43c0-9f03-c7d63a428574,6,1767702187401,2.4139502,-7.39305,-5.46495,-0.044,0.0339625,-0.0045375,-0.0058493614196777,-0.1001328229904174,-0.305264053344727,15.42115,73.981195,0.138975,0.3213206179713662,0.0,0.055767735407670986,0.0036052030603347185
07041728-71ac-43c0-9f03-c7d63a428574,6,1767702187412,2.4520502,-7.3740005,-5.427,-0.034649998,0.00715,0.01595,-0.0237607955932617,-0.0519977807998657,-0.3317361450195317,15.42115,73.981195,0.138975,0.3366262237671858,0.0,0.03880911441143696,-0.011441553952643993
07041728-71ac-43c0-9f03-c7d63a428574,6,1767702187422,2.4520502,-7.3740005,-5.427,-0.034649998,0.00715,0.01595,-0.0237607955932617,-0.0519977807998657,-0.3317361450195317,15.42115,73.981195,0.138975,0.3366262237671858,0.0,0.03880911441143696,-0.009474770757266233
07041728-71ac-43c0-9f03-c7d63a428574,6,1767702187433,2.4709501,-7.3549504,-5.44605,-0.0287375,-0.005775,0.03575,9.298324584960938e-05,-0.034136414527893,-0.3305898284912114,15.42115,73.981195,0.138975,0.3323476164267659,0.0,0.0462304772985311,-0.00022411684502212883
07041728-71ac-43c0-9f03-c7d63a428574,6,1767702187444,2.4709501,-7.3549504,-5.44605,-0.0287375,-0.005775,0.03575,9.298324584960938e-05,-0.034136414527893,-0.3305898284912114,15.42115,73.981195,0.138975,0.3323476164267659,0.0,0.0462304772985311,0.0012865300573485687
07041728-71ac-43c0-9f03-c7d63a428574,6,1767702187454,2.4709501,-7.3549504,-5.44605,-0.0287375,-0.005775,0.03575,9.298324584960938e-05,-0.034136414527893,-0.3305898284912114,15.42115,73.981195,0.138975,0.3323476164267659,0.0,0.0462304772985311,0.002334352118756872
07041728-71ac-43c0-9f03-c7d63a428574,6,1767702187465,2.4709501,-7.3549504,-5.46495,-0.0251625,-0.0116875,0.0394625,0.0101642608642578,-0.0312447547912597,-0.3197141265869145,15.42115,73.981195,0.138975,0.3213979925888092,0.0,0.04823938192752888,0.004841822808279142
07041728-71ac-43c0-9f03-c7d63a428574,6,1767702187476,2.4709501,-7.3549504,-5.46495,-0.0251625,-0.0116875,0.0394625,0.0101642608642578,-0.0312447547912597,-0.3197141265869145,15.42115,73.981195,0.138975,0.3213979925888092,0.0,0.04823938192752888,0.0047764339173110544
07041728-71ac-43c0-9f03-c7d63a428574,6,1767702187487,2.4520502,-7.39305,-5.484,-0.017324999,-0.0213125,0.031075,-0.0056729316711425,-0.0480506420135498,-0.2841563796997075,15.42115,73.981195,0.138975,0.2882462393088661,0.0,0.04147329106304443,-0.0025560243377237414
07041728-71ac-43c0-9f03-c7d63a428574,6,1767702187498,2.4520502,-7.39305,-5.484,-0.017324999,-0.0213125,0.031075,-0.0056729316711425,-0.0480506420135498,-0.2841563796997075,15.42115,73.981195,0.138975,0.2882462393088661,0.0,0.04147329106304443,-0.0034855471658820935
07041728-71ac-43c0-9f03-c7d63a428574,6,1767702187508,2.433,-7.3549504,-5.5030503,-0.0114124995,-0.0303875,0.0231,0.0267314910888671,-0.0582689046859741,-0.30767017364502,15.42115,73.981195,0.138975,0.3142781787205311,0.0,0.03984037275286842,-0.006210292993143423
07041728-71ac-43c0-9f03-c7d63a428574,6,1767702187519,2.433,-7.3549504,-5.5030503,-0.0114124995,-0.0303875,0.0231,0.0267314910888671,-0.0582689046859741,-0.30767017364502,15.42115,73.981195,0.138975,0.3142781787205311,0.0,0.03984037275286842,-0.007220914888927357
07041728-71ac-43c0-9f03-c7d63a428574,6,1767702187530,2.5090501,-7.3350005,-5.484,-0.0105875,-0.042625,0.0155375,0.0369815826416015,0.0300914049148559,-0.3142343139648442,15.42115,73.981195,0.138975,0.3178306690320865,0.0,0.046587548631581814,-0.0011445789926888671
07041728-71ac-43c0-9f03-c7d63a428574,6,1767702187541,2.5090501,-7.3350005,-5.484,-0.0105875,-0.042625,0.0155375,0.0369815826416015,0.0300914049148559,-0.3142343139648442,15.42115,73.981195,0.138975,0.3178306690320865,0.0,0.046587548631581814,-0.001234431828006921
07041728-71ac-43c0-9f03-c7d63a428574,6,1767702187551,2.529,-7.39305,-5.44605,-0.0088,-0.04675,0.00935,-0.026216983795166,0.0639330148696899,-0.2859387969970708,15.42115,73.981195,0.138975,0.2941696045783386,0.0,0.04848118191628582,0.0013403243700281869
07041728-71ac-43c0-9f03-c7d63a428574,6,1767702187562,2.529,-7.39305,-5.44605,-0.0088,-0.04675,0.00935,-0.026216983795166,0.0639330148696899,-0.2859387969970708,15.42115,73.981195,0.138975,0.2941696045783386,0.0,0.04848118191628582,0.002900166224180957
07041728-71ac-43c0-9f03-c7d63a428574,6,1767702187573,2.529,-7.39305,-5.44605,-0.0088,-0.04675,0.00935,-0.026216983795166,0.0639330148696899,-0.2859387969970708,15.42115,73.981195,0.138975,0.2941696045783386,0.0,0.04848118191628582,0.005340517286065712
07041728-71ac-43c0-9f03-c7d63a428574,6,1767702187584,2.529,-7.431,-5.46495,-0.00495,-0.050049998,0.00165,-0.0367631912231445,0.0612051486968994,-0.2456794357299809,15.42115,73.981195,0.138975,0.2558436780468122,0.0,0.05032124103994261,0.010384992158704434
07041728-71ac-43c0-9f03-c7d63a428574,6,1767702187594,2.529,-7.431,-5.46495,-0.00495,-0.050049998,0.00165,-0.0367631912231445,0.0612051486968994,-0.2456794357299809,15.42115,73.981195,0.138975,0.2558436780468122,0.0,0.05032124103994261,0.014120914528550492
07041728-71ac-43c0-9f03-c7d63a428574,6,1767702187605,2.4709501,-7.39305,-5.5219502,-0.0111375,-0.020075,0.013062499,0.0168752670288085,-0.0009120702743530272,-0.2572789764404302,15.42115,73.981195,0.138975,0.2578334311677102,0.0,0.02641360277158345,-0.0058502288391692825
07041728-71ac-43c0-9f03-c7d63a428574,6,1767702187616,2.4709501,-7.39305,-5.5219502,-0.0111375,-0.020075,0.013062499,0.0168752670288085,-0.0009120702743530272,-0.2572789764404302,15.42115,73.981195,0.138975,0.2578334311677102,0.0,0.02641360277158345,-0.0021100715424192157
07041728-71ac-43c0-9f03-c7d63a428574,6,1767702187627,2.394,-7.3549504,-5.5030503,-0.014712499,-0.003575,0.017875,0.0094537734985351,-0.0582944154739379,-0.3175483322143559,15.42115,73.981195,0.138975,0.3229931206712129,0.0,0.02342549629837116,-0.001973346336021797
07041728-71ac-43c0-9f03-c7d63a428574,6,1767702187638,2.394,-7.3549504,-5.5030503,-0.014712499,-0.003575,0.017875,0.0094537734985351,-0.0582944154739379,-0.3175483322143559,15.42115,73.981195,0.138975,0.3229931206712129,0.0,0.02342549629837116,0.00014547287492429356
07041728-71ac-43c0-9f03-c7d63a428574,6,1767702187648,2.4139502,-7.3549504,-5.484,-0.015125,0.00055,0.0143,-0.0025911331176757,-0.0286790132522583,-0.3233838653564458,15.42115,73.981195,0.138975,0.3246634013017676,0.0,0.020822058615804537,-0.0016568808033500142
07041728-71ac-43c0-9f03-c7d63a428574,6,1767702187659,2.4139502,-7.3549504,-5.484,-0.015125,0.00055,0.0143,-0.0025911331176757,-0.0286790132522583,-0.3233838653564458,15.42115,73.981195,0.138975,0.3246634013017676,0.0,0.020822058615804537,-0.0023618992271128582
07041728-71ac-43c0-9f03-c7d63a428574,6,1767702187670,2.4139502,-7.3549504,-5.484,-0.015125,0.00055,0.0143,-0.0025911331176757,-0.0286790132522583,-0.3233838653564458,15.42115,73.981195,0.138975,0.3246634013017676,0.0,0.020822058615804537,-0.004606007406649504
07041728-71ac-43c0-9f03-c7d63a428574,6,1767702187681,2.433,-7.3740005,-5.46495,-0.0191125,0.0012375,0.014575,-0.0267186164855957,-0.0027214288711547,-0.3147206878662114,15.42115,73.981195,0.138975,0.31586453110944,0.0,0.02406760660098964,-0.005006502517900434
07041728-71ac-43c0-9f03-c7d63a428574,6,1767702187692,2.433,-7.3740005,-5.46495,-0.0191125,0.0012375,0.014575,-0.0267186164855957,-0.0027214288711547,-0.3147206878662114,15.42115,73.981195,0.138975,0.31586453110944,0.0,0.02406760660098964,-0.009752742334946638
07041728-71ac-43c0-9f03-c7d63a428574,6,1767702187703,2.4520502,-7.3549504,-5.46495,-0.0235125,0.011825,0.0213125,-0.0141034126281738,0.0192444324493408,-0.3245921707153325,15.42115,73.981195,0.138975,0.3254678658758024,0.0,0.033865778265086424,-0.005361289273665426
07041728-71ac-43c0-9f03-c7d63a428574,6,1767702187714,2.4520502,-7.3549504,-5.46495,-0.0235125,0.011825,0.0213125,-0.0141034126281738,0.0192444324493408,-0.3245921707153325,15.42115,73.981195,0.138975,0.3254678658758024,0.0,0.033865778265086424,-0.010896525371460342
07041728-71ac-43c0-9f03-c7d63a428574,6,1767702187724,2.5090501,-7.3740005,-5.46495,-0.0268125,0.0319,0.038775,-0.0174136161804199,0.0732045173645019,-0.2952094650268559,15.42115,73.981195,0.138975,0.3046485903996457,0.0,0.05692118042741208,0.007059024006713921
07041728-71ac-43c0-9f03-c7d63a428574,6,1767702187735,2.5090501,-7.3740005,-5.46495,-0.0268125,0.0319,0.038775,-0.0174136161804199,0.0732045173645019,-0.2952094650268559,15.42115,73.981195,0.138975,0.3046485903996457,0.0,0.05692118042741208,0.0029223961969093246
07041728-71ac-43c0-9f03-c7d63a428574,6,1767702187746,2.56695,-7.39305,-5.484,-0.027224999,0.043175,0.0429,-0.0053911209106445,0.121688961982727,-0.2545915222167974,15.42115,73.981195,0.138975,0.2822305986915182,0.0,0.06667601664429272,0.009928353089940103
07041728-71ac-43c0-9f03-c7d63a428574,6,1767702187757,2.56695,-7.39305,-5.484,-0.027224999,0.043175,0.0429,-0.0053911209106445,0.121688961982727,-0.2545915222167974,15.42115,73.981195,0.138975,0.2822305986915182,0.0,0.06667601664429272,0.008830812443631871
07041728-71ac-43c0-9f03-c7d63a428574,6,1767702187767,2.529,-7.431,-5.484,-0.0231,0.0460625,0.037125,-0.0371546745300293,0.0834102630615234,-0.2349496459960942,15.42115,73.981195,0.138975,0.2520695895523991,0.0,0.06351086152186884,0.006282234846250981
07041728-71ac-43c0-9f03-c7d63a428574,6,1767702187778,2.529,-7.431,-5.484,-0.0231,0.0460625,0.037125,-0.0371546745300293,0.0834102630615234,-0.2349496459960942,15.42115,73.981195,0.138975,0.2520695895523991,0.0,0.06351086152186884,0.008458803676390266
07041728-71ac-43c0-9f03-c7d63a428574,6,1767702187789,2.529,-7.431,-5.484,-0.0231,0.0460625,0.037125,-0.0371546745300293,0.0834102630615234,-0.2349496459960942,15.42115,73.981195,0.138975,0.2520695895523991,0.0,0.06351086152186884,0.011835031737659209
